id,trialN,blockN,intero_order,stimLevel,response,confidence,RT,meanDispRating,maia_notice,maia_ndistract,maia_nworry,maia_attnReg,maia_EmoAware,maia_SelfRef,maia_listen,maia_trust,sticsa_gm,sticsa_gm_cog,sticsa_gm_som,wemwbs
263,1,1,0.0,9,0.0,86.97916667,0.7049582,15.4947916666667,4.25,1.5,0.2,3.0,4.2,1.75,1.66666666666667,3.0,45.0,22.0,23.0,50.0
263,2,1,0.0,14,1.0,86.97916667,0.3980897,15.4947916666667,4.25,1.5,0.2,3.0,4.2,1.75,1.66666666666667,3.0,45.0,22.0,23.0,50.0
263,3,1,0.0,13,1.0,62.5,0.283886,15.4947916666667,4.25,1.5,0.2,3.0,4.2,1.75,1.66666666666667,3.0,45.0,22.0,23.0,50.0
263,4,1,0.0,12,1.0,18.22916667,1.3088706,15.4947916666667,4.25,1.5,0.2,3.0,4.2,1.75,1.66666666666667,3.0,45.0,22.0,23.0,50.0
263,5,1,0.0,11,0.0,69.53125,0.2237292,15.4947916666667,4.25,1.5,0.2,3.0,4.2,1.75,1.66666666666667,3.0,45.0,22.0,23.0,50.0
263,6,1,0.0,13,0.0,0.0,0.8797809,15.4947916666667,4.25,1.5,0.2,3.0,4.2,1.75,1.66666666666667,3.0,45.0,22.0,23.0,50.0
263,7,1,0.0,15,1.0,97.91666667,1.1171486,15.4947916666667,4.25,1.5,0.2,3.0,4.2,1.75,1.66666666666667,3.0,45.0,22.0,23.0,50.0
263,8,1,0.0,14,1.0,72.13541667,0.2670702,15.4947916666667,4.25,1.5,0.2,3.0,4.2,1.75,1.66666666666667,3.0,45.0,22.0,23.0,50.0
263,9,1,0.0,14,1.0,75.0,0.2028289,15.4947916666667,4.25,1.5,0.2,3.0,4.2,1.75,1.66666666666667,3.0,45.0,22.0,23.0,50.0
263,10,1,0.0,13,0.0,13.80208333,1.5291712,15.4947916666667,4.25,1.5,0.2,3.0,4.2,1.75,1.66666666666667,3.0,45.0,22.0,23.0,50.0
263,11,1,0.0,14,1.0,88.28125,0.6172963,15.4947916666667,4.25,1.5,0.2,3.0,4.2,1.75,1.66666666666667,3.0,45.0,22.0,23.0,50.0
263,12,1,0.0,14,1.0,100.0,0.2683619,15.4947916666667,4.25,1.5,0.2,3.0,4.2,1.75,1.66666666666667,3.0,45.0,22.0,23.0,50.0
263,13,1,0.0,14,1.0,100.0,0.2055376,15.4947916666667,4.25,1.5,0.2,3.0,4.2,1.75,1.66666666666667,3.0,45.0,22.0,23.0,50.0
263,14,1,0.0,14,1.0,100.0,0.2502628,15.4947916666667,4.25,1.5,0.2,3.0,4.2,1.75,1.66666666666667,3.0,45.0,22.0,23.0,50.0
263,15,1,0.0,14,0.0,97.39583333,0.2027439,15.4947916666667,4.25,1.5,0.2,3.0,4.2,1.75,1.66666666666667,3.0,45.0,22.0,23.0,50.0
263,16,1,0.0,14,0.0,95.83333333,0.1747167,15.4947916666667,4.25,1.5,0.2,3.0,4.2,1.75,1.66666666666667,3.0,45.0,22.0,23.0,50.0
263,17,1,0.0,15,0.0,100.0,0.0585377,15.4947916666667,4.25,1.5,0.2,3.0,4.2,1.75,1.66666666666667,3.0,45.0,22.0,23.0,50.0
263,18,1,0.0,16,1.0,92.44791667,0.2619632,15.4947916666667,4.25,1.5,0.2,3.0,4.2,1.75,1.66666666666667,3.0,45.0,22.0,23.0,50.0
263,19,1,0.0,16,1.0,100.0,1.0070201,15.4947916666667,4.25,1.5,0.2,3.0,4.2,1.75,1.66666666666667,3.0,45.0,22.0,23.0,50.0
263,20,1,0.0,16,1.0,58.85416667,0.2130605,15.4947916666667,4.25,1.5,0.2,3.0,4.2,1.75,1.66666666666667,3.0,45.0,22.0,23.0,50.0
263,21,2,0.0,16,1.0,100.0,0.8835869,15.4947916666667,4.25,1.5,0.2,3.0,4.2,1.75,1.66666666666667,3.0,45.0,22.0,23.0,50.0
263,22,2,0.0,16,1.0,100.0,0.5590098,15.4947916666667,4.25,1.5,0.2,3.0,4.2,1.75,1.66666666666667,3.0,45.0,22.0,23.0,50.0
263,23,2,0.0,15,1.0,100.0,0.710756,15.4947916666667,4.25,1.5,0.2,3.0,4.2,1.75,1.66666666666667,3.0,45.0,22.0,23.0,50.0
263,24,2,0.0,15,1.0,100.0,0.3545834,15.4947916666667,4.25,1.5,0.2,3.0,4.2,1.75,1.66666666666667,3.0,45.0,22.0,23.0,50.0
263,25,2,0.0,15,1.0,100.0,0.2820069,15.4947916666667,4.25,1.5,0.2,3.0,4.2,1.75,1.66666666666667,3.0,45.0,22.0,23.0,50.0
263,26,2,0.0,15,1.0,100.0,0.2502582,15.4947916666667,4.25,1.5,0.2,3.0,4.2,1.75,1.66666666666667,3.0,45.0,22.0,23.0,50.0
263,27,2,0.0,15,1.0,100.0,0.2229371,15.4947916666667,4.25,1.5,0.2,3.0,4.2,1.75,1.66666666666667,3.0,45.0,22.0,23.0,50.0
263,28,2,0.0,15,1.0,100.0,0.163854,15.4947916666667,4.25,1.5,0.2,3.0,4.2,1.75,1.66666666666667,3.0,45.0,22.0,23.0,50.0
263,29,2,0.0,14,1.0,75.26041667,0.9191042,15.4947916666667,4.25,1.5,0.2,3.0,4.2,1.75,1.66666666666667,3.0,45.0,22.0,23.0,50.0
263,30,2,0.0,14,1.0,97.65625,0.2737971,15.4947916666667,4.25,1.5,0.2,3.0,4.2,1.75,1.66666666666667,3.0,45.0,22.0,23.0,50.0
263,31,2,0.0,14,1.0,100.0,0.4054277,15.4947916666667,4.25,1.5,0.2,3.0,4.2,1.75,1.66666666666667,3.0,45.0,22.0,23.0,50.0
263,32,2,0.0,14,1.0,100.0,0.1781834,15.4947916666667,4.25,1.5,0.2,3.0,4.2,1.75,1.66666666666667,3.0,45.0,22.0,23.0,50.0
263,33,2,0.0,14,1.0,100.0,0.2502996,15.4947916666667,4.25,1.5,0.2,3.0,4.2,1.75,1.66666666666667,3.0,45.0,22.0,23.0,50.0
263,34,2,0.0,14,1.0,100.0,0.310262,15.4947916666667,4.25,1.5,0.2,3.0,4.2,1.75,1.66666666666667,3.0,45.0,22.0,23.0,50.0
263,35,2,0.0,14,1.0,17.44791667,1.316964,15.4947916666667,4.25,1.5,0.2,3.0,4.2,1.75,1.66666666666667,3.0,45.0,22.0,23.0,50.0
263,36,2,0.0,14,1.0,87.5,0.2149224,15.4947916666667,4.25,1.5,0.2,3.0,4.2,1.75,1.66666666666667,3.0,45.0,22.0,23.0,50.0
263,37,2,0.0,13,1.0,53.64583333,0.2506375,15.4947916666667,4.25,1.5,0.2,3.0,4.2,1.75,1.66666666666667,3.0,45.0,22.0,23.0,50.0
263,38,2,0.0,13,1.0,100.0,0.5233325,15.4947916666667,4.25,1.5,0.2,3.0,4.2,1.75,1.66666666666667,3.0,45.0,22.0,23.0,50.0
263,39,2,0.0,13,1.0,63.02083333,0.3197635,15.4947916666667,4.25,1.5,0.2,3.0,4.2,1.75,1.66666666666667,3.0,45.0,22.0,23.0,50.0
263,40,2,0.0,13,1.0,15.36458333,0.4890676,15.4947916666667,4.25,1.5,0.2,3.0,4.2,1.75,1.66666666666667,3.0,45.0,22.0,23.0,50.0
263,41,3,0.0,13,1.0,38.80208333,0.306066,15.4947916666667,4.25,1.5,0.2,3.0,4.2,1.75,1.66666666666667,3.0,45.0,22.0,23.0,50.0
263,42,3,0.0,13,1.0,23.69791667,1.4798671,15.4947916666667,4.25,1.5,0.2,3.0,4.2,1.75,1.66666666666667,3.0,45.0,22.0,23.0,50.0
263,43,3,0.0,13,1.0,100.0,0.2336122,15.4947916666667,4.25,1.5,0.2,3.0,4.2,1.75,1.66666666666667,3.0,45.0,22.0,23.0,50.0
263,44,3,0.0,12,1.0,71.875,0.1721689,15.4947916666667,4.25,1.5,0.2,3.0,4.2,1.75,1.66666666666667,3.0,45.0,22.0,23.0,50.0
263,45,3,0.0,12,1.0,14.0625,1.436672,15.4947916666667,4.25,1.5,0.2,3.0,4.2,1.75,1.66666666666667,3.0,45.0,22.0,23.0,50.0
263,46,3,0.0,12,1.0,90.10416667,0.1630412,15.4947916666667,4.25,1.5,0.2,3.0,4.2,1.75,1.66666666666667,3.0,45.0,22.0,23.0,50.0
263,47,3,0.0,12,1.0,64.32291667,0.1770434,15.4947916666667,4.25,1.5,0.2,3.0,4.2,1.75,1.66666666666667,3.0,45.0,22.0,23.0,50.0
263,48,3,0.0,12,0.0,4.6875,2.4821271,15.4947916666667,4.25,1.5,0.2,3.0,4.2,1.75,1.66666666666667,3.0,45.0,22.0,23.0,50.0
263,49,3,0.0,12,1.0,100.0,1.129656,15.4947916666667,4.25,1.5,0.2,3.0,4.2,1.75,1.66666666666667,3.0,45.0,22.0,23.0,50.0
263,50,3,0.0,12,1.0,80.46875,0.2166272,15.4947916666667,4.25,1.5,0.2,3.0,4.2,1.75,1.66666666666667,3.0,45.0,22.0,23.0,50.0
263,51,3,0.0,12,1.0,95.83333333,0.4268686,15.4947916666667,4.25,1.5,0.2,3.0,4.2,1.75,1.66666666666667,3.0,45.0,22.0,23.0,50.0
263,52,3,0.0,12,1.0,80.98958333,0.2133858,15.4947916666667,4.25,1.5,0.2,3.0,4.2,1.75,1.66666666666667,3.0,45.0,22.0,23.0,50.0
263,53,3,0.0,12,0.0,64.84375,0.2335197,15.4947916666667,4.25,1.5,0.2,3.0,4.2,1.75,1.66666666666667,3.0,45.0,22.0,23.0,50.0
263,54,3,0.0,12,1.0,84.89583333,0.1836547,15.4947916666667,4.25,1.5,0.2,3.0,4.2,1.75,1.66666666666667,3.0,45.0,22.0,23.0,50.0
263,55,3,0.0,12,1.0,88.80208333,0.2501529,15.4947916666667,4.25,1.5,0.2,3.0,4.2,1.75,1.66666666666667,3.0,45.0,22.0,23.0,50.0
263,56,3,0.0,12,1.0,100.0,0.0537837,15.4947916666667,4.25,1.5,0.2,3.0,4.2,1.75,1.66666666666667,3.0,45.0,22.0,23.0,50.0
263,57,3,0.0,12,1.0,92.1875,0.2359638,15.4947916666667,4.25,1.5,0.2,3.0,4.2,1.75,1.66666666666667,3.0,45.0,22.0,23.0,50.0
263,58,3,0.0,11,1.0,36.97916667,1.2467644,15.4947916666667,4.25,1.5,0.2,3.0,4.2,1.75,1.66666666666667,3.0,45.0,22.0,23.0,50.0
263,59,3,0.0,11,1.0,72.39583333,0.0010893,15.4947916666667,4.25,1.5,0.2,3.0,4.2,1.75,1.66666666666667,3.0,45.0,22.0,23.0,50.0
263,60,3,0.0,10,1.0,40.625,0.166869,15.4947916666667,4.25,1.5,0.2,3.0,4.2,1.75,1.66666666666667,3.0,45.0,22.0,23.0,50.0
263,61,4,0.0,10,1.0,29.16666667,0.2267447,15.4947916666667,4.25,1.5,0.2,3.0,4.2,1.75,1.66666666666667,3.0,45.0,22.0,23.0,50.0
263,62,4,0.0,10,1.0,73.17708333,0.1985522,15.4947916666667,4.25,1.5,0.2,3.0,4.2,1.75,1.66666666666667,3.0,45.0,22.0,23.0,50.0
263,63,4,0.0,9,1.0,61.97916667,0.2054053,15.4947916666667,4.25,1.5,0.2,3.0,4.2,1.75,1.66666666666667,3.0,45.0,22.0,23.0,50.0
263,64,4,0.0,9,1.0,19.79166667,0.2350148,15.4947916666667,4.25,1.5,0.2,3.0,4.2,1.75,1.66666666666667,3.0,45.0,22.0,23.0,50.0
263,65,4,0.0,8,1.0,30.20833333,0.505612,15.4947916666667,4.25,1.5,0.2,3.0,4.2,1.75,1.66666666666667,3.0,45.0,22.0,23.0,50.0
263,66,4,0.0,8,0.0,7.552083333,0.754239,15.4947916666667,4.25,1.5,0.2,3.0,4.2,1.75,1.66666666666667,3.0,45.0,22.0,23.0,50.0
263,67,4,0.0,9,1.0,44.53125,0.669408,15.4947916666667,4.25,1.5,0.2,3.0,4.2,1.75,1.66666666666667,3.0,45.0,22.0,23.0,50.0
263,68,4,0.0,9,1.0,47.65625,1.5076661,15.4947916666667,4.25,1.5,0.2,3.0,4.2,1.75,1.66666666666667,3.0,45.0,22.0,23.0,50.0
263,69,4,0.0,8,1.0,0.0,1.7297935,15.4947916666667,4.25,1.5,0.2,3.0,4.2,1.75,1.66666666666667,3.0,45.0,22.0,23.0,50.0
263,70,4,0.0,8,1.0,25.0,0.5502778,15.4947916666667,4.25,1.5,0.2,3.0,4.2,1.75,1.66666666666667,3.0,45.0,22.0,23.0,50.0
263,71,4,0.0,8,1.0,17.96875,0.4432345,15.4947916666667,4.25,1.5,0.2,3.0,4.2,1.75,1.66666666666667,3.0,45.0,22.0,23.0,50.0
263,72,4,0.0,8,1.0,48.69791667,0.1981167,15.4947916666667,4.25,1.5,0.2,3.0,4.2,1.75,1.66666666666667,3.0,45.0,22.0,23.0,50.0
263,73,4,0.0,8,1.0,50.0,0.1823093,15.4947916666667,4.25,1.5,0.2,3.0,4.2,1.75,1.66666666666667,3.0,45.0,22.0,23.0,50.0
263,74,4,0.0,8,1.0,29.94791667,2.6337776,15.4947916666667,4.25,1.5,0.2,3.0,4.2,1.75,1.66666666666667,3.0,45.0,22.0,23.0,50.0
263,75,4,0.0,8,0.0,8.59375,0.2927414,15.4947916666667,4.25,1.5,0.2,3.0,4.2,1.75,1.66666666666667,3.0,45.0,22.0,23.0,50.0
263,76,4,0.0,7,1.0,15.36458333,0.3041986,15.4947916666667,4.25,1.5,0.2,3.0,4.2,1.75,1.66666666666667,3.0,45.0,22.0,23.0,50.0
263,77,4,0.0,7,1.0,32.8125,1.424027,15.4947916666667,4.25,1.5,0.2,3.0,4.2,1.75,1.66666666666667,3.0,45.0,22.0,23.0,50.0
263,78,4,0.0,7,1.0,50.0,0.2651454,15.4947916666667,4.25,1.5,0.2,3.0,4.2,1.75,1.66666666666667,3.0,45.0,22.0,23.0,50.0
263,79,4,0.0,7,0.0,36.19791667,0.2694904,15.4947916666667,4.25,1.5,0.2,3.0,4.2,1.75,1.66666666666667,3.0,45.0,22.0,23.0,50.0
263,80,4,0.0,7,0.0,5.208333333,2.3675802,15.4947916666667,4.25,1.5,0.2,3.0,4.2,1.75,1.66666666666667,3.0,45.0,22.0,23.0,50.0
263,81,5,0.0,8,0.0,34.11458333,0.6365153,15.4947916666667,4.25,1.5,0.2,3.0,4.2,1.75,1.66666666666667,3.0,45.0,22.0,23.0,50.0
263,82,5,0.0,8,1.0,14.0625,0.5679595,15.4947916666667,4.25,1.5,0.2,3.0,4.2,1.75,1.66666666666667,3.0,45.0,22.0,23.0,50.0
263,83,5,0.0,8,1.0,53.64583333,0.5694294,15.4947916666667,4.25,1.5,0.2,3.0,4.2,1.75,1.66666666666667,3.0,45.0,22.0,23.0,50.0
263,84,5,0.0,7,1.0,4.947916667,0.9077837,15.4947916666667,4.25,1.5,0.2,3.0,4.2,1.75,1.66666666666667,3.0,45.0,22.0,23.0,50.0
263,85,5,0.0,7,1.0,28.90625,2.4557372,15.4947916666667,4.25,1.5,0.2,3.0,4.2,1.75,1.66666666666667,3.0,45.0,22.0,23.0,50.0
263,86,5,0.0,7,1.0,29.42708333,0.5560771,15.4947916666667,4.25,1.5,0.2,3.0,4.2,1.75,1.66666666666667,3.0,45.0,22.0,23.0,50.0
263,87,5,0.0,7,0.0,11.19791667,0.7071492,15.4947916666667,4.25,1.5,0.2,3.0,4.2,1.75,1.66666666666667,3.0,45.0,22.0,23.0,50.0
263,88,5,0.0,17,1.0,89.58333333,0.5779095,15.4947916666667,4.25,1.5,0.2,3.0,4.2,1.75,1.66666666666667,3.0,45.0,22.0,23.0,50.0
263,89,5,0.0,7,1.0,28.64583333,0.8834728,15.4947916666667,4.25,1.5,0.2,3.0,4.2,1.75,1.66666666666667,3.0,45.0,22.0,23.0,50.0
263,90,5,0.0,7,0.0,50.26041667,0.2341073,15.4947916666667,4.25,1.5,0.2,3.0,4.2,1.75,1.66666666666667,3.0,45.0,22.0,23.0,50.0
263,91,5,0.0,17,1.0,91.14583333,0.0598545,15.4947916666667,4.25,1.5,0.2,3.0,4.2,1.75,1.66666666666667,3.0,45.0,22.0,23.0,50.0
263,92,5,0.0,16,1.0,83.07291667,0.0002473,15.4947916666667,4.25,1.5,0.2,3.0,4.2,1.75,1.66666666666667,3.0,45.0,22.0,23.0,50.0
263,93,5,0.0,7,0.0,52.86458333,0.375736,15.4947916666667,4.25,1.5,0.2,3.0,4.2,1.75,1.66666666666667,3.0,45.0,22.0,23.0,50.0
263,94,5,0.0,16,1.0,92.96875,0.0956892,15.4947916666667,4.25,1.5,0.2,3.0,4.2,1.75,1.66666666666667,3.0,45.0,22.0,23.0,50.0
263,95,5,0.0,8,0.0,28.38541667,0.6084218,15.4947916666667,4.25,1.5,0.2,3.0,4.2,1.75,1.66666666666667,3.0,45.0,22.0,23.0,50.0
263,96,5,0.0,16,1.0,100.0,0.0122347,15.4947916666667,4.25,1.5,0.2,3.0,4.2,1.75,1.66666666666667,3.0,45.0,22.0,23.0,50.0
263,97,5,0.0,8,0.0,18.22916667,0.2821192,15.4947916666667,4.25,1.5,0.2,3.0,4.2,1.75,1.66666666666667,3.0,45.0,22.0,23.0,50.0
263,98,5,0.0,16,1.0,97.91666667,0.103473,15.4947916666667,4.25,1.5,0.2,3.0,4.2,1.75,1.66666666666667,3.0,45.0,22.0,23.0,50.0
263,99,5,0.0,9,1.0,29.94791667,0.2117561,15.4947916666667,4.25,1.5,0.2,3.0,4.2,1.75,1.66666666666667,3.0,45.0,22.0,23.0,50.0
263,100,5,0.0,9,0.0,5.208333333,0.2055706,15.4947916666667,4.25,1.5,0.2,3.0,4.2,1.75,1.66666666666667,3.0,45.0,22.0,23.0,50.0
263,101,6,0.0,16,1.0,98.69791667,0.1742809,15.4947916666667,4.25,1.5,0.2,3.0,4.2,1.75,1.66666666666667,3.0,45.0,22.0,23.0,50.0
263,102,6,0.0,9,1.0,46.61458333,0.2597651,15.4947916666667,4.25,1.5,0.2,3.0,4.2,1.75,1.66666666666667,3.0,45.0,22.0,23.0,50.0
263,103,6,0.0,16,1.0,100.0,0.099996,15.4947916666667,4.25,1.5,0.2,3.0,4.2,1.75,1.66666666666667,3.0,45.0,22.0,23.0,50.0
263,104,6,0.0,9,1.0,51.30208333,0.3315937,15.4947916666667,4.25,1.5,0.2,3.0,4.2,1.75,1.66666666666667,3.0,45.0,22.0,23.0,50.0
263,105,6,0.0,16,1.0,95.57291667,0.2169029,15.4947916666667,4.25,1.5,0.2,3.0,4.2,1.75,1.66666666666667,3.0,45.0,22.0,23.0,50.0
263,106,6,0.0,9,0.0,34.63541667,0.3152581,15.4947916666667,4.25,1.5,0.2,3.0,4.2,1.75,1.66666666666667,3.0,45.0,22.0,23.0,50.0
263,107,6,0.0,10,1.0,38.02083333,1.6639696,15.4947916666667,4.25,1.5,0.2,3.0,4.2,1.75,1.66666666666667,3.0,45.0,22.0,23.0,50.0
263,108,6,0.0,16,1.0,97.39583333,0.1673977,15.4947916666667,4.25,1.5,0.2,3.0,4.2,1.75,1.66666666666667,3.0,45.0,22.0,23.0,50.0
263,109,6,0.0,9,1.0,25.52083333,0.1945042,15.4947916666667,4.25,1.5,0.2,3.0,4.2,1.75,1.66666666666667,3.0,45.0,22.0,23.0,50.0
263,110,6,0.0,8,0.0,6.25,1.0618524,15.4947916666667,4.25,1.5,0.2,3.0,4.2,1.75,1.66666666666667,3.0,45.0,22.0,23.0,50.0
263,111,6,0.0,10,1.0,13.28125,0.6740132,15.4947916666667,4.25,1.5,0.2,3.0,4.2,1.75,1.66666666666667,3.0,45.0,22.0,23.0,50.0
263,112,6,0.0,15,1.0,96.35416667,1.6556421,15.4947916666667,4.25,1.5,0.2,3.0,4.2,1.75,1.66666666666667,3.0,45.0,22.0,23.0,50.0
263,113,6,0.0,10,1.0,54.94791667,0.1875899,15.4947916666667,4.25,1.5,0.2,3.0,4.2,1.75,1.66666666666667,3.0,45.0,22.0,23.0,50.0
263,114,6,0.0,10,0.0,4.427083333,2.5830206,15.4947916666667,4.25,1.5,0.2,3.0,4.2,1.75,1.66666666666667,3.0,45.0,22.0,23.0,50.0
263,115,6,0.0,15,1.0,90.88541667,0.3471551,15.4947916666667,4.25,1.5,0.2,3.0,4.2,1.75,1.66666666666667,3.0,45.0,22.0,23.0,50.0
263,116,6,0.0,15,1.0,95.3125,0.3972433,15.4947916666667,4.25,1.5,0.2,3.0,4.2,1.75,1.66666666666667,3.0,45.0,22.0,23.0,50.0
263,117,6,0.0,9,1.0,40.625,0.3800214,15.4947916666667,4.25,1.5,0.2,3.0,4.2,1.75,1.66666666666667,3.0,45.0,22.0,23.0,50.0
263,118,6,0.0,9,1.0,29.6875,2.3587053,15.4947916666667,4.25,1.5,0.2,3.0,4.2,1.75,1.66666666666667,3.0,45.0,22.0,23.0,50.0
263,119,6,0.0,15,1.0,93.48958333,0.8663381,15.4947916666667,4.25,1.5,0.2,3.0,4.2,1.75,1.66666666666667,3.0,45.0,22.0,23.0,50.0
263,120,6,0.0,9,1.0,21.61458333,0.2036296,15.4947916666667,4.25,1.5,0.2,3.0,4.2,1.75,1.66666666666667,3.0,45.0,22.0,23.0,50.0
264,1,1,1.0,9,1.0,21.09375,0.7340607,49.516369047619,3.25,0.166666666666667,1.0,2.0,3.6,3.25,2.0,5.0,38.0,16.0,22.0,57.0
264,2,1,1.0,7,0.0,27.34375,0.9332589,49.516369047619,3.25,0.166666666666667,1.0,2.0,3.6,3.25,2.0,5.0,38.0,16.0,22.0,57.0
264,3,1,1.0,12,1.0,86.71875,0.4722922,49.516369047619,3.25,0.166666666666667,1.0,2.0,3.6,3.25,2.0,5.0,38.0,16.0,22.0,57.0
264,4,1,1.0,10,1.0,23.69791667,1.6568476,49.516369047619,3.25,0.166666666666667,1.0,2.0,3.6,3.25,2.0,5.0,38.0,16.0,22.0,57.0
264,5,1,1.0,9,1.0,67.70833333,0.889942,49.516369047619,3.25,0.166666666666667,1.0,2.0,3.6,3.25,2.0,5.0,38.0,16.0,22.0,57.0
264,6,1,1.0,9,0.0,0.0,1.7701032,49.516369047619,3.25,0.166666666666667,1.0,2.0,3.6,3.25,2.0,5.0,38.0,16.0,22.0,57.0
264,7,1,1.0,10,1.0,38.28125,1.2082916,49.516369047619,3.25,0.166666666666667,1.0,2.0,3.6,3.25,2.0,5.0,38.0,16.0,22.0,57.0
264,8,1,1.0,10,1.0,71.61458333,0.4380669,49.516369047619,3.25,0.166666666666667,1.0,2.0,3.6,3.25,2.0,5.0,38.0,16.0,22.0,57.0
264,9,1,1.0,9,1.0,10.67708333,1.2109631,49.516369047619,3.25,0.166666666666667,1.0,2.0,3.6,3.25,2.0,5.0,38.0,16.0,22.0,57.0
264,10,1,1.0,9,1.0,50.26041667,0.7207756,49.516369047619,3.25,0.166666666666667,1.0,2.0,3.6,3.25,2.0,5.0,38.0,16.0,22.0,57.0
264,11,1,1.0,9,1.0,67.44791667,0.5026446,49.516369047619,3.25,0.166666666666667,1.0,2.0,3.6,3.25,2.0,5.0,38.0,16.0,22.0,57.0
264,12,1,1.0,9,0.0,16.40625,1.1139231,49.516369047619,3.25,0.166666666666667,1.0,2.0,3.6,3.25,2.0,5.0,38.0,16.0,22.0,57.0
264,13,1,1.0,9,0.0,67.1875,0.2485077,49.516369047619,3.25,0.166666666666667,1.0,2.0,3.6,3.25,2.0,5.0,38.0,16.0,22.0,57.0
264,14,1,1.0,10,0.0,29.94791667,0.6190389,49.516369047619,3.25,0.166666666666667,1.0,2.0,3.6,3.25,2.0,5.0,38.0,16.0,22.0,57.0
264,15,1,1.0,12,0.0,73.17708333,0.6497829,49.516369047619,3.25,0.166666666666667,1.0,2.0,3.6,3.25,2.0,5.0,38.0,16.0,22.0,57.0
264,16,1,1.0,15,1.0,100.0,0.4261057,49.516369047619,3.25,0.166666666666667,1.0,2.0,3.6,3.25,2.0,5.0,38.0,16.0,22.0,57.0
264,17,1,1.0,14,1.0,84.89583333,1.2093865,49.516369047619,3.25,0.166666666666667,1.0,2.0,3.6,3.25,2.0,5.0,38.0,16.0,22.0,57.0
264,18,1,1.0,13,1.0,80.98958333,0.3447628,49.516369047619,3.25,0.166666666666667,1.0,2.0,3.6,3.25,2.0,5.0,38.0,16.0,22.0,57.0
264,19,1,1.0,13,1.0,100.0,0.3558908,49.516369047619,3.25,0.166666666666667,1.0,2.0,3.6,3.25,2.0,5.0,38.0,16.0,22.0,57.0
264,20,1,1.0,12,0.0,0.0,1.0591675,49.516369047619,3.25,0.166666666666667,1.0,2.0,3.6,3.25,2.0,5.0,38.0,16.0,22.0,57.0
264,21,2,1.0,13,1.0,74.21875,1.2132106,49.516369047619,3.25,0.166666666666667,1.0,2.0,3.6,3.25,2.0,5.0,38.0,16.0,22.0,57.0
264,22,2,1.0,13,1.0,17.70833333,1.3304215,49.516369047619,3.25,0.166666666666667,1.0,2.0,3.6,3.25,2.0,5.0,38.0,16.0,22.0,57.0
264,23,2,1.0,13,1.0,60.67708333,0.9659156,49.516369047619,3.25,0.166666666666667,1.0,2.0,3.6,3.25,2.0,5.0,38.0,16.0,22.0,57.0
264,24,2,1.0,13,0.0,69.27083333,1.9976248,49.516369047619,3.25,0.166666666666667,1.0,2.0,3.6,3.25,2.0,5.0,38.0,16.0,22.0,57.0
264,25,2,1.0,13,1.0,38.54166667,1.5659361,49.516369047619,3.25,0.166666666666667,1.0,2.0,3.6,3.25,2.0,5.0,38.0,16.0,22.0,57.0
264,26,2,1.0,13,0.0,14.58333333,0.6741969,49.516369047619,3.25,0.166666666666667,1.0,2.0,3.6,3.25,2.0,5.0,38.0,16.0,22.0,57.0
264,27,2,1.0,14,1.0,16.14583333,2.08095,49.516369047619,3.25,0.166666666666667,1.0,2.0,3.6,3.25,2.0,5.0,38.0,16.0,22.0,57.0
264,28,2,1.0,14,0.0,4.947916667,0.8742156,49.516369047619,3.25,0.166666666666667,1.0,2.0,3.6,3.25,2.0,5.0,38.0,16.0,22.0,57.0
264,29,2,1.0,15,1.0,100.0,0.2400444,49.516369047619,3.25,0.166666666666667,1.0,2.0,3.6,3.25,2.0,5.0,38.0,16.0,22.0,57.0
264,30,2,1.0,14,1.0,96.09375,1.2269886,49.516369047619,3.25,0.166666666666667,1.0,2.0,3.6,3.25,2.0,5.0,38.0,16.0,22.0,57.0
264,31,2,1.0,14,1.0,0.0,2.2574037,49.516369047619,3.25,0.166666666666667,1.0,2.0,3.6,3.25,2.0,5.0,38.0,16.0,22.0,57.0
264,32,2,1.0,14,1.0,66.14583333,1.8407393,49.516369047619,3.25,0.166666666666667,1.0,2.0,3.6,3.25,2.0,5.0,38.0,16.0,22.0,57.0
264,33,2,1.0,14,1.0,98.4375,0.4665693,49.516369047619,3.25,0.166666666666667,1.0,2.0,3.6,3.25,2.0,5.0,38.0,16.0,22.0,57.0
264,34,2,1.0,14,0.0,8.854166667,0.9154387,49.516369047619,3.25,0.166666666666667,1.0,2.0,3.6,3.25,2.0,5.0,38.0,16.0,22.0,57.0
264,35,2,1.0,14,1.0,87.23958333,0.6482732,49.516369047619,3.25,0.166666666666667,1.0,2.0,3.6,3.25,2.0,5.0,38.0,16.0,22.0,57.0
264,36,2,1.0,14,1.0,63.80208333,0.7308072,49.516369047619,3.25,0.166666666666667,1.0,2.0,3.6,3.25,2.0,5.0,38.0,16.0,22.0,57.0
264,37,2,1.0,14,0.0,0.0,0.7332538,49.516369047619,3.25,0.166666666666667,1.0,2.0,3.6,3.25,2.0,5.0,38.0,16.0,22.0,57.0
264,38,2,1.0,14,1.0,100.0,0.4666558,49.516369047619,3.25,0.166666666666667,1.0,2.0,3.6,3.25,2.0,5.0,38.0,16.0,22.0,57.0
264,39,2,1.0,14,1.0,11.97916667,0.5400198,49.516369047619,3.25,0.166666666666667,1.0,2.0,3.6,3.25,2.0,5.0,38.0,16.0,22.0,57.0
264,40,2,1.0,14,1.0,67.96875,0.4834181,49.516369047619,3.25,0.166666666666667,1.0,2.0,3.6,3.25,2.0,5.0,38.0,16.0,22.0,57.0
264,41,3,1.0,14,1.0,67.44791667,0.7086535,49.516369047619,3.25,0.166666666666667,1.0,2.0,3.6,3.25,2.0,5.0,38.0,16.0,22.0,57.0
264,42,3,1.0,14,1.0,86.71875,0.7930604,49.516369047619,3.25,0.166666666666667,1.0,2.0,3.6,3.25,2.0,5.0,38.0,16.0,22.0,57.0
264,43,3,1.0,14,1.0,91.40625,0.2332754,49.516369047619,3.25,0.166666666666667,1.0,2.0,3.6,3.25,2.0,5.0,38.0,16.0,22.0,57.0
264,44,3,1.0,14,1.0,97.39583333,0.2147195,49.516369047619,3.25,0.166666666666667,1.0,2.0,3.6,3.25,2.0,5.0,38.0,16.0,22.0,57.0
264,45,3,1.0,14,1.0,100.0,0.4555921,49.516369047619,3.25,0.166666666666667,1.0,2.0,3.6,3.25,2.0,5.0,38.0,16.0,22.0,57.0
264,46,3,1.0,14,1.0,26.04166667,0.561247,49.516369047619,3.25,0.166666666666667,1.0,2.0,3.6,3.25,2.0,5.0,38.0,16.0,22.0,57.0
264,47,3,1.0,14,1.0,76.04166667,0.2689101,49.516369047619,3.25,0.166666666666667,1.0,2.0,3.6,3.25,2.0,5.0,38.0,16.0,22.0,57.0
264,48,3,1.0,13,1.0,79.16666667,0.6839572,49.516369047619,3.25,0.166666666666667,1.0,2.0,3.6,3.25,2.0,5.0,38.0,16.0,22.0,57.0
264,49,3,1.0,13,1.0,18.22916667,0.7603385,49.516369047619,3.25,0.166666666666667,1.0,2.0,3.6,3.25,2.0,5.0,38.0,16.0,22.0,57.0
264,50,3,1.0,13,1.0,33.59375,1.497184,49.516369047619,3.25,0.166666666666667,1.0,2.0,3.6,3.25,2.0,5.0,38.0,16.0,22.0,57.0
264,51,3,1.0,13,1.0,57.29166667,0.494959,49.516369047619,3.25,0.166666666666667,1.0,2.0,3.6,3.25,2.0,5.0,38.0,16.0,22.0,57.0
264,52,3,1.0,13,0.0,75.52083333,1.1822912,49.516369047619,3.25,0.166666666666667,1.0,2.0,3.6,3.25,2.0,5.0,38.0,16.0,22.0,57.0
264,53,3,1.0,13,1.0,64.84375,1.1602953,49.516369047619,3.25,0.166666666666667,1.0,2.0,3.6,3.25,2.0,5.0,38.0,16.0,22.0,57.0
264,54,3,1.0,13,1.0,70.05208333,0.4374451,49.516369047619,3.25,0.166666666666667,1.0,2.0,3.6,3.25,2.0,5.0,38.0,16.0,22.0,57.0
264,55,3,1.0,13,1.0,100.0,0.2320102,49.516369047619,3.25,0.166666666666667,1.0,2.0,3.6,3.25,2.0,5.0,38.0,16.0,22.0,57.0
264,56,3,1.0,12,1.0,59.63541667,0.6671515,49.516369047619,3.25,0.166666666666667,1.0,2.0,3.6,3.25,2.0,5.0,38.0,16.0,22.0,57.0
264,57,3,1.0,15,1.0,100.0,0.4041269,49.516369047619,3.25,0.166666666666667,1.0,2.0,3.6,3.25,2.0,5.0,38.0,16.0,22.0,57.0
264,58,3,1.0,12,0.0,0.0,1.1861031,49.516369047619,3.25,0.166666666666667,1.0,2.0,3.6,3.25,2.0,5.0,38.0,16.0,22.0,57.0
264,59,3,1.0,13,1.0,58.85416667,1.3857954,49.516369047619,3.25,0.166666666666667,1.0,2.0,3.6,3.25,2.0,5.0,38.0,16.0,22.0,57.0
264,60,3,1.0,13,1.0,9.895833333,1.0739601,49.516369047619,3.25,0.166666666666667,1.0,2.0,3.6,3.25,2.0,5.0,38.0,16.0,22.0,57.0
264,61,4,1.0,13,1.0,99.47916667,0.3249655,49.516369047619,3.25,0.166666666666667,1.0,2.0,3.6,3.25,2.0,5.0,38.0,16.0,22.0,57.0
264,62,4,1.0,13,1.0,85.41666667,1.3503833,49.516369047619,3.25,0.166666666666667,1.0,2.0,3.6,3.25,2.0,5.0,38.0,16.0,22.0,57.0
264,63,4,1.0,13,0.0,0.0,0.6021932,49.516369047619,3.25,0.166666666666667,1.0,2.0,3.6,3.25,2.0,5.0,38.0,16.0,22.0,57.0
264,64,4,1.0,13,1.0,79.6875,0.9002008,49.516369047619,3.25,0.166666666666667,1.0,2.0,3.6,3.25,2.0,5.0,38.0,16.0,22.0,57.0
264,65,4,1.0,13,1.0,87.76041667,0.3335214,49.516369047619,3.25,0.166666666666667,1.0,2.0,3.6,3.25,2.0,5.0,38.0,16.0,22.0,57.0
264,66,4,1.0,13,1.0,100.0,0.0004709,49.516369047619,3.25,0.166666666666667,1.0,2.0,3.6,3.25,2.0,5.0,38.0,16.0,22.0,57.0
264,67,4,1.0,13,1.0,14.84375,0.5167736,49.516369047619,3.25,0.166666666666667,1.0,2.0,3.6,3.25,2.0,5.0,38.0,16.0,22.0,57.0
264,68,4,1.0,13,0.0,0.0,1.554095,49.516369047619,3.25,0.166666666666667,1.0,2.0,3.6,3.25,2.0,5.0,38.0,16.0,22.0,57.0
264,69,4,1.0,13,1.0,67.96875,0.2168603,49.516369047619,3.25,0.166666666666667,1.0,2.0,3.6,3.25,2.0,5.0,38.0,16.0,22.0,57.0
264,70,4,1.0,13,0.0,77.34375,0.2549069,49.516369047619,3.25,0.166666666666667,1.0,2.0,3.6,3.25,2.0,5.0,38.0,16.0,22.0,57.0
264,71,4,1.0,13,1.0,83.33333333,0.4148589,49.516369047619,3.25,0.166666666666667,1.0,2.0,3.6,3.25,2.0,5.0,38.0,16.0,22.0,57.0
264,72,4,1.0,13,0.0,10.15625,1.293813,49.516369047619,3.25,0.166666666666667,1.0,2.0,3.6,3.25,2.0,5.0,38.0,16.0,22.0,57.0
264,73,4,1.0,15,1.0,100.0,1.0669325,49.516369047619,3.25,0.166666666666667,1.0,2.0,3.6,3.25,2.0,5.0,38.0,16.0,22.0,57.0
264,74,4,1.0,15,1.0,100.0,0.1701668,49.516369047619,3.25,0.166666666666667,1.0,2.0,3.6,3.25,2.0,5.0,38.0,16.0,22.0,57.0
264,75,4,1.0,15,1.0,100.0,0.434839,49.516369047619,3.25,0.166666666666667,1.0,2.0,3.6,3.25,2.0,5.0,38.0,16.0,22.0,57.0
264,76,4,1.0,15,1.0,83.33333333,0.618918,49.516369047619,3.25,0.166666666666667,1.0,2.0,3.6,3.25,2.0,5.0,38.0,16.0,22.0,57.0
264,77,4,1.0,15,1.0,100.0,0.5955472,49.516369047619,3.25,0.166666666666667,1.0,2.0,3.6,3.25,2.0,5.0,38.0,16.0,22.0,57.0
264,78,4,1.0,15,1.0,100.0,0.2169366,49.516369047619,3.25,0.166666666666667,1.0,2.0,3.6,3.25,2.0,5.0,38.0,16.0,22.0,57.0
264,79,4,1.0,15,1.0,78.64583333,0.3335192,49.516369047619,3.25,0.166666666666667,1.0,2.0,3.6,3.25,2.0,5.0,38.0,16.0,22.0,57.0
264,80,4,1.0,13,1.0,70.3125,0.0006287,49.516369047619,3.25,0.166666666666667,1.0,2.0,3.6,3.25,2.0,5.0,38.0,16.0,22.0,57.0
264,81,5,1.0,13,0.0,10.67708333,1.1007213,49.516369047619,3.25,0.166666666666667,1.0,2.0,3.6,3.25,2.0,5.0,38.0,16.0,22.0,57.0
264,82,5,1.0,15,1.0,97.13541667,0.7623204,49.516369047619,3.25,0.166666666666667,1.0,2.0,3.6,3.25,2.0,5.0,38.0,16.0,22.0,57.0
264,83,5,1.0,15,0.0,3.125,0.9471187,49.516369047619,3.25,0.166666666666667,1.0,2.0,3.6,3.25,2.0,5.0,38.0,16.0,22.0,57.0
264,84,5,1.0,15,1.0,51.82291667,0.3445827,49.516369047619,3.25,0.166666666666667,1.0,2.0,3.6,3.25,2.0,5.0,38.0,16.0,22.0,57.0
264,85,5,1.0,15,1.0,83.07291667,1.093406,49.516369047619,3.25,0.166666666666667,1.0,2.0,3.6,3.25,2.0,5.0,38.0,16.0,22.0,57.0
264,86,5,1.0,15,1.0,80.98958333,0.6456374,49.516369047619,3.25,0.166666666666667,1.0,2.0,3.6,3.25,2.0,5.0,38.0,16.0,22.0,57.0
264,87,5,1.0,15,1.0,71.875,0.3111251,49.516369047619,3.25,0.166666666666667,1.0,2.0,3.6,3.25,2.0,5.0,38.0,16.0,22.0,57.0
264,88,5,1.0,15,1.0,55.72916667,0.8683965,49.516369047619,3.25,0.166666666666667,1.0,2.0,3.6,3.25,2.0,5.0,38.0,16.0,22.0,57.0
264,89,5,1.0,15,1.0,100.0,0.491711,49.516369047619,3.25,0.166666666666667,1.0,2.0,3.6,3.25,2.0,5.0,38.0,16.0,22.0,57.0
264,90,5,1.0,15,1.0,23.69791667,0.8817734,49.516369047619,3.25,0.166666666666667,1.0,2.0,3.6,3.25,2.0,5.0,38.0,16.0,22.0,57.0
264,91,5,1.0,15,1.0,78.125,0.3539165,49.516369047619,3.25,0.166666666666667,1.0,2.0,3.6,3.25,2.0,5.0,38.0,16.0,22.0,57.0
264,92,5,1.0,15,1.0,100.0,0.3836526,49.516369047619,3.25,0.166666666666667,1.0,2.0,3.6,3.25,2.0,5.0,38.0,16.0,22.0,57.0
264,93,5,1.0,12,1.0,63.28125,0.8692756,49.516369047619,3.25,0.166666666666667,1.0,2.0,3.6,3.25,2.0,5.0,38.0,16.0,22.0,57.0
264,94,5,1.0,12,1.0,1.302083333,0.8498908,49.516369047619,3.25,0.166666666666667,1.0,2.0,3.6,3.25,2.0,5.0,38.0,16.0,22.0,57.0
264,95,5,1.0,12,1.0,20.05208333,1.1477111,49.516369047619,3.25,0.166666666666667,1.0,2.0,3.6,3.25,2.0,5.0,38.0,16.0,22.0,57.0
264,96,5,1.0,12,0.0,0.0,0.9918142,49.516369047619,3.25,0.166666666666667,1.0,2.0,3.6,3.25,2.0,5.0,38.0,16.0,22.0,57.0
264,97,5,1.0,15,1.0,72.39583333,0.4574371,49.516369047619,3.25,0.166666666666667,1.0,2.0,3.6,3.25,2.0,5.0,38.0,16.0,22.0,57.0
264,98,5,1.0,12,0.0,7.03125,1.0669694,49.516369047619,3.25,0.166666666666667,1.0,2.0,3.6,3.25,2.0,5.0,38.0,16.0,22.0,57.0
264,99,5,1.0,14,1.0,71.61458333,1.1542778,49.516369047619,3.25,0.166666666666667,1.0,2.0,3.6,3.25,2.0,5.0,38.0,16.0,22.0,57.0
264,100,5,1.0,14,1.0,14.84375,0.5131401,49.516369047619,3.25,0.166666666666667,1.0,2.0,3.6,3.25,2.0,5.0,38.0,16.0,22.0,57.0
264,101,6,1.0,14,0.0,0.0,0.8159491,49.516369047619,3.25,0.166666666666667,1.0,2.0,3.6,3.25,2.0,5.0,38.0,16.0,22.0,57.0
264,102,6,1.0,15,1.0,100.0,0.2840742,49.516369047619,3.25,0.166666666666667,1.0,2.0,3.6,3.25,2.0,5.0,38.0,16.0,22.0,57.0
264,103,6,1.0,15,1.0,28.90625,0.4834188,49.516369047619,3.25,0.166666666666667,1.0,2.0,3.6,3.25,2.0,5.0,38.0,16.0,22.0,57.0
264,104,6,1.0,14,1.0,14.32291667,1.2055585,49.516369047619,3.25,0.166666666666667,1.0,2.0,3.6,3.25,2.0,5.0,38.0,16.0,22.0,57.0
264,105,6,1.0,15,1.0,79.16666667,0.6227849,49.516369047619,3.25,0.166666666666667,1.0,2.0,3.6,3.25,2.0,5.0,38.0,16.0,22.0,57.0
264,106,6,1.0,13,1.0,32.29166667,1.2185366,49.516369047619,3.25,0.166666666666667,1.0,2.0,3.6,3.25,2.0,5.0,38.0,16.0,22.0,57.0
264,107,6,1.0,12,0.0,0.0,0.78167,49.516369047619,3.25,0.166666666666667,1.0,2.0,3.6,3.25,2.0,5.0,38.0,16.0,22.0,57.0
264,108,6,1.0,14,1.0,94.79166667,0.2836181,49.516369047619,3.25,0.166666666666667,1.0,2.0,3.6,3.25,2.0,5.0,38.0,16.0,22.0,57.0
264,109,6,1.0,14,1.0,97.39583333,0.3195456,49.516369047619,3.25,0.166666666666667,1.0,2.0,3.6,3.25,2.0,5.0,38.0,16.0,22.0,57.0
264,110,6,1.0,14,1.0,34.63541667,0.483556,49.516369047619,3.25,0.166666666666667,1.0,2.0,3.6,3.25,2.0,5.0,38.0,16.0,22.0,57.0
264,111,6,1.0,14,1.0,53.125,0.5334523,49.516369047619,3.25,0.166666666666667,1.0,2.0,3.6,3.25,2.0,5.0,38.0,16.0,22.0,57.0
264,112,6,1.0,14,1.0,71.35416667,0.4002785,49.516369047619,3.25,0.166666666666667,1.0,2.0,3.6,3.25,2.0,5.0,38.0,16.0,22.0,57.0
264,113,6,1.0,14,0.0,0.0,1.0644374,49.516369047619,3.25,0.166666666666667,1.0,2.0,3.6,3.25,2.0,5.0,38.0,16.0,22.0,57.0
264,114,6,1.0,14,1.0,12.76041667,0.3837809,49.516369047619,3.25,0.166666666666667,1.0,2.0,3.6,3.25,2.0,5.0,38.0,16.0,22.0,57.0
264,115,6,1.0,13,0.0,0.0,0.98342,49.516369047619,3.25,0.166666666666667,1.0,2.0,3.6,3.25,2.0,5.0,38.0,16.0,22.0,57.0
264,116,6,1.0,14,1.0,92.1875,0.6335254,49.516369047619,3.25,0.166666666666667,1.0,2.0,3.6,3.25,2.0,5.0,38.0,16.0,22.0,57.0
264,117,6,1.0,14,1.0,70.83333333,0.3914315,49.516369047619,3.25,0.166666666666667,1.0,2.0,3.6,3.25,2.0,5.0,38.0,16.0,22.0,57.0
264,118,6,1.0,14,1.0,57.8125,0.4761401,49.516369047619,3.25,0.166666666666667,1.0,2.0,3.6,3.25,2.0,5.0,38.0,16.0,22.0,57.0
264,119,6,1.0,14,1.0,34.11458333,1.1168873,49.516369047619,3.25,0.166666666666667,1.0,2.0,3.6,3.25,2.0,5.0,38.0,16.0,22.0,57.0
264,120,6,1.0,14,1.0,9.895833333,0.7485637,49.516369047619,3.25,0.166666666666667,1.0,2.0,3.6,3.25,2.0,5.0,38.0,16.0,22.0,57.0
268,1,1,0.0,9,0.0,27.60416667,0.7330066,3.45982142857143,3.0,1.0,2.4,2.0,1.8,1.0,0.666666666666667,3.66666666666667,21.0,10.0,11.0,55.0
268,2,1,0.0,14,1.0,34.11458333,0.7834678,3.45982142857143,3.0,1.0,2.4,2.0,1.8,1.0,0.666666666666667,3.66666666666667,21.0,10.0,11.0,55.0
268,3,1,0.0,13,1.0,70.83333333,0.4668495,3.45982142857143,3.0,1.0,2.4,2.0,1.8,1.0,0.666666666666667,3.66666666666667,21.0,10.0,11.0,55.0
268,4,1,0.0,12,1.0,64.84375,1.6674096,3.45982142857143,3.0,1.0,2.4,2.0,1.8,1.0,0.666666666666667,3.66666666666667,21.0,10.0,11.0,55.0
268,5,1,0.0,11,1.0,83.33333333,0.6370924,3.45982142857143,3.0,1.0,2.4,2.0,1.8,1.0,0.666666666666667,3.66666666666667,21.0,10.0,11.0,55.0
268,6,1,0.0,11,0.0,26.04166667,0.7999945,3.45982142857143,3.0,1.0,2.4,2.0,1.8,1.0,0.666666666666667,3.66666666666667,21.0,10.0,11.0,55.0
268,7,1,0.0,12,1.0,5.729166667,1.3667816,3.45982142857143,3.0,1.0,2.4,2.0,1.8,1.0,0.666666666666667,3.66666666666667,21.0,10.0,11.0,55.0
268,8,1,0.0,11,0.0,17.96875,0.666857,3.45982142857143,3.0,1.0,2.4,2.0,1.8,1.0,0.666666666666667,3.66666666666667,21.0,10.0,11.0,55.0
268,9,1,0.0,12,0.0,20.3125,0.6434833,3.45982142857143,3.0,1.0,2.4,2.0,1.8,1.0,0.666666666666667,3.66666666666667,21.0,10.0,11.0,55.0
268,10,1,0.0,14,1.0,71.09375,0.418879,3.45982142857143,3.0,1.0,2.4,2.0,1.8,1.0,0.666666666666667,3.66666666666667,21.0,10.0,11.0,55.0
268,11,1,0.0,13,1.0,79.94791667,0.2684457,3.45982142857143,3.0,1.0,2.4,2.0,1.8,1.0,0.666666666666667,3.66666666666667,21.0,10.0,11.0,55.0
268,12,1,0.0,13,1.0,86.19791667,0.2889661,3.45982142857143,3.0,1.0,2.4,2.0,1.8,1.0,0.666666666666667,3.66666666666667,21.0,10.0,11.0,55.0
268,13,1,0.0,13,1.0,67.1875,0.5835319,3.45982142857143,3.0,1.0,2.4,2.0,1.8,1.0,0.666666666666667,3.66666666666667,21.0,10.0,11.0,55.0
268,14,1,0.0,13,1.0,88.28125,0.2835644,3.45982142857143,3.0,1.0,2.4,2.0,1.8,1.0,0.666666666666667,3.66666666666667,21.0,10.0,11.0,55.0
268,15,1,0.0,13,1.0,81.51041667,0.5067833,3.45982142857143,3.0,1.0,2.4,2.0,1.8,1.0,0.666666666666667,3.66666666666667,21.0,10.0,11.0,55.0
268,16,1,0.0,12,1.0,73.95833333,0.2668554,3.45982142857143,3.0,1.0,2.4,2.0,1.8,1.0,0.666666666666667,3.66666666666667,21.0,10.0,11.0,55.0
268,17,1,0.0,12,1.0,62.76041667,0.3276497,3.45982142857143,3.0,1.0,2.4,2.0,1.8,1.0,0.666666666666667,3.66666666666667,21.0,10.0,11.0,55.0
268,18,1,0.0,12,1.0,35.67708333,1.1503208,3.45982142857143,3.0,1.0,2.4,2.0,1.8,1.0,0.666666666666667,3.66666666666667,21.0,10.0,11.0,55.0
268,19,1,0.0,12,0.0,76.30208333,0.2692931,3.45982142857143,3.0,1.0,2.4,2.0,1.8,1.0,0.666666666666667,3.66666666666667,21.0,10.0,11.0,55.0
268,20,1,0.0,12,0.0,29.94791667,0.9698913,3.45982142857143,3.0,1.0,2.4,2.0,1.8,1.0,0.666666666666667,3.66666666666667,21.0,10.0,11.0,55.0
268,21,2,0.0,13,0.0,10.9375,0.4030144,3.45982142857143,3.0,1.0,2.4,2.0,1.8,1.0,0.666666666666667,3.66666666666667,21.0,10.0,11.0,55.0
268,22,2,0.0,13,1.0,79.94791667,0.325687,3.45982142857143,3.0,1.0,2.4,2.0,1.8,1.0,0.666666666666667,3.66666666666667,21.0,10.0,11.0,55.0
268,23,2,0.0,13,1.0,47.39583333,0.4500236,3.45982142857143,3.0,1.0,2.4,2.0,1.8,1.0,0.666666666666667,3.66666666666667,21.0,10.0,11.0,55.0
268,24,2,0.0,13,1.0,74.47916667,0.483489,3.45982142857143,3.0,1.0,2.4,2.0,1.8,1.0,0.666666666666667,3.66666666666667,21.0,10.0,11.0,55.0
268,25,2,0.0,13,1.0,85.41666667,0.361376,3.45982142857143,3.0,1.0,2.4,2.0,1.8,1.0,0.666666666666667,3.66666666666667,21.0,10.0,11.0,55.0
268,26,2,0.0,13,1.0,14.32291667,0.4834119,3.45982142857143,3.0,1.0,2.4,2.0,1.8,1.0,0.666666666666667,3.66666666666667,21.0,10.0,11.0,55.0
268,27,2,0.0,13,1.0,100.0,0.2668668,3.45982142857143,3.0,1.0,2.4,2.0,1.8,1.0,0.666666666666667,3.66666666666667,21.0,10.0,11.0,55.0
268,28,2,0.0,13,0.0,20.57291667,0.6333728,3.45982142857143,3.0,1.0,2.4,2.0,1.8,1.0,0.666666666666667,3.66666666666667,21.0,10.0,11.0,55.0
268,29,2,0.0,13,1.0,83.85416667,0.2668803,3.45982142857143,3.0,1.0,2.4,2.0,1.8,1.0,0.666666666666667,3.66666666666667,21.0,10.0,11.0,55.0
268,30,2,0.0,13,1.0,78.38541667,0.6501314,3.45982142857143,3.0,1.0,2.4,2.0,1.8,1.0,0.666666666666667,3.66666666666667,21.0,10.0,11.0,55.0
268,31,2,0.0,13,0.0,8.072916667,1.2406253,3.45982142857143,3.0,1.0,2.4,2.0,1.8,1.0,0.666666666666667,3.66666666666667,21.0,10.0,11.0,55.0
268,32,2,0.0,13,1.0,80.98958333,0.4002009,3.45982142857143,3.0,1.0,2.4,2.0,1.8,1.0,0.666666666666667,3.66666666666667,21.0,10.0,11.0,55.0
268,33,2,0.0,13,0.0,75.26041667,0.2500808,3.45982142857143,3.0,1.0,2.4,2.0,1.8,1.0,0.666666666666667,3.66666666666667,21.0,10.0,11.0,55.0
268,34,2,0.0,14,1.0,81.25,0.2333651,3.45982142857143,3.0,1.0,2.4,2.0,1.8,1.0,0.666666666666667,3.66666666666667,21.0,10.0,11.0,55.0
268,35,2,0.0,14,1.0,89.0625,0.2338318,3.45982142857143,3.0,1.0,2.4,2.0,1.8,1.0,0.666666666666667,3.66666666666667,21.0,10.0,11.0,55.0
268,36,2,0.0,14,1.0,91.66666667,0.5334231,3.45982142857143,3.0,1.0,2.4,2.0,1.8,1.0,0.666666666666667,3.66666666666667,21.0,10.0,11.0,55.0
268,37,2,0.0,13,1.0,3.125,0.6167328,3.45982142857143,3.0,1.0,2.4,2.0,1.8,1.0,0.666666666666667,3.66666666666667,21.0,10.0,11.0,55.0
268,38,2,0.0,13,1.0,86.71875,0.2334761,3.45982142857143,3.0,1.0,2.4,2.0,1.8,1.0,0.666666666666667,3.66666666666667,21.0,10.0,11.0,55.0
268,39,2,0.0,13,1.0,91.66666667,0.2196105,3.45982142857143,3.0,1.0,2.4,2.0,1.8,1.0,0.666666666666667,3.66666666666667,21.0,10.0,11.0,55.0
268,40,2,0.0,13,0.0,22.13541667,0.7005021,3.45982142857143,3.0,1.0,2.4,2.0,1.8,1.0,0.666666666666667,3.66666666666667,21.0,10.0,11.0,55.0
268,41,3,0.0,14,1.0,74.21875,0.2853961,3.45982142857143,3.0,1.0,2.4,2.0,1.8,1.0,0.666666666666667,3.66666666666667,21.0,10.0,11.0,55.0
268,42,3,0.0,14,0.0,25.26041667,0.5166566,3.45982142857143,3.0,1.0,2.4,2.0,1.8,1.0,0.666666666666667,3.66666666666667,21.0,10.0,11.0,55.0
268,43,3,0.0,15,1.0,96.09375,0.8667477,3.45982142857143,3.0,1.0,2.4,2.0,1.8,1.0,0.666666666666667,3.66666666666667,21.0,10.0,11.0,55.0
268,44,3,0.0,15,1.0,92.96875,0.2839483,3.45982142857143,3.0,1.0,2.4,2.0,1.8,1.0,0.666666666666667,3.66666666666667,21.0,10.0,11.0,55.0
268,45,3,0.0,15,1.0,88.02083333,0.4002317,3.45982142857143,3.0,1.0,2.4,2.0,1.8,1.0,0.666666666666667,3.66666666666667,21.0,10.0,11.0,55.0
268,46,3,0.0,14,1.0,67.1875,0.2427415,3.45982142857143,3.0,1.0,2.4,2.0,1.8,1.0,0.666666666666667,3.66666666666667,21.0,10.0,11.0,55.0
268,47,3,0.0,15,1.0,88.54166667,0.250116,3.45982142857143,3.0,1.0,2.4,2.0,1.8,1.0,0.666666666666667,3.66666666666667,21.0,10.0,11.0,55.0
268,48,3,0.0,14,1.0,28.90625,0.266703,3.45982142857143,3.0,1.0,2.4,2.0,1.8,1.0,0.666666666666667,3.66666666666667,21.0,10.0,11.0,55.0
268,49,3,0.0,14,1.0,68.22916667,0.2165612,3.45982142857143,3.0,1.0,2.4,2.0,1.8,1.0,0.666666666666667,3.66666666666667,21.0,10.0,11.0,55.0
268,50,3,0.0,14,1.0,18.22916667,0.5166169,3.45982142857143,3.0,1.0,2.4,2.0,1.8,1.0,0.666666666666667,3.66666666666667,21.0,10.0,11.0,55.0
268,51,3,0.0,14,1.0,100.0,0.2334845,3.45982142857143,3.0,1.0,2.4,2.0,1.8,1.0,0.666666666666667,3.66666666666667,21.0,10.0,11.0,55.0
268,52,3,0.0,14,1.0,85.41666667,0.2120964,3.45982142857143,3.0,1.0,2.4,2.0,1.8,1.0,0.666666666666667,3.66666666666667,21.0,10.0,11.0,55.0
268,53,3,0.0,13,1.0,3.90625,0.8501645,3.45982142857143,3.0,1.0,2.4,2.0,1.8,1.0,0.666666666666667,3.66666666666667,21.0,10.0,11.0,55.0
268,54,3,0.0,14,1.0,82.8125,0.2500735,3.45982142857143,3.0,1.0,2.4,2.0,1.8,1.0,0.666666666666667,3.66666666666667,21.0,10.0,11.0,55.0
268,55,3,0.0,13,1.0,87.5,0.223793,3.45982142857143,3.0,1.0,2.4,2.0,1.8,1.0,0.666666666666667,3.66666666666667,21.0,10.0,11.0,55.0
268,56,3,0.0,14,0.0,2.604166667,0.8334608,3.45982142857143,3.0,1.0,2.4,2.0,1.8,1.0,0.666666666666667,3.66666666666667,21.0,10.0,11.0,55.0
268,57,3,0.0,15,1.0,90.10416667,0.2165988,3.45982142857143,3.0,1.0,2.4,2.0,1.8,1.0,0.666666666666667,3.66666666666667,21.0,10.0,11.0,55.0
268,58,3,0.0,15,1.0,97.13541667,0.2664978,3.45982142857143,3.0,1.0,2.4,2.0,1.8,1.0,0.666666666666667,3.66666666666667,21.0,10.0,11.0,55.0
268,59,3,0.0,15,1.0,97.39583333,0.4834988,3.45982142857143,3.0,1.0,2.4,2.0,1.8,1.0,0.666666666666667,3.66666666666667,21.0,10.0,11.0,55.0
268,60,3,0.0,15,1.0,90.88541667,0.2667388,3.45982142857143,3.0,1.0,2.4,2.0,1.8,1.0,0.666666666666667,3.66666666666667,21.0,10.0,11.0,55.0
268,61,4,0.0,14,1.0,100.0,0.2090879,3.45982142857143,3.0,1.0,2.4,2.0,1.8,1.0,0.666666666666667,3.66666666666667,21.0,10.0,11.0,55.0
268,62,4,0.0,14,1.0,87.5,0.2201002,3.45982142857143,3.0,1.0,2.4,2.0,1.8,1.0,0.666666666666667,3.66666666666667,21.0,10.0,11.0,55.0
268,63,4,0.0,14,1.0,21.61458333,0.5333535,3.45982142857143,3.0,1.0,2.4,2.0,1.8,1.0,0.666666666666667,3.66666666666667,21.0,10.0,11.0,55.0
268,64,4,0.0,14,0.0,10.15625,0.9515672,3.45982142857143,3.0,1.0,2.4,2.0,1.8,1.0,0.666666666666667,3.66666666666667,21.0,10.0,11.0,55.0
268,65,4,0.0,15,1.0,96.09375,0.1999719,3.45982142857143,3.0,1.0,2.4,2.0,1.8,1.0,0.666666666666667,3.66666666666667,21.0,10.0,11.0,55.0
268,66,4,0.0,15,1.0,97.65625,0.1992869,3.45982142857143,3.0,1.0,2.4,2.0,1.8,1.0,0.666666666666667,3.66666666666667,21.0,10.0,11.0,55.0
268,67,4,0.0,15,1.0,88.54166667,0.2510551,3.45982142857143,3.0,1.0,2.4,2.0,1.8,1.0,0.666666666666667,3.66666666666667,21.0,10.0,11.0,55.0
268,68,4,0.0,15,1.0,100.0,0.4960243,3.45982142857143,3.0,1.0,2.4,2.0,1.8,1.0,0.666666666666667,3.66666666666667,21.0,10.0,11.0,55.0
268,69,4,0.0,15,1.0,95.57291667,0.2164282,3.45982142857143,3.0,1.0,2.4,2.0,1.8,1.0,0.666666666666667,3.66666666666667,21.0,10.0,11.0,55.0
268,70,4,0.0,15,1.0,96.61458333,0.3570676,3.45982142857143,3.0,1.0,2.4,2.0,1.8,1.0,0.666666666666667,3.66666666666667,21.0,10.0,11.0,55.0
268,71,4,0.0,15,1.0,100.0,0.2667707,3.45982142857143,3.0,1.0,2.4,2.0,1.8,1.0,0.666666666666667,3.66666666666667,21.0,10.0,11.0,55.0
268,72,4,0.0,12,0.0,84.63541667,0.2587268,3.45982142857143,3.0,1.0,2.4,2.0,1.8,1.0,0.666666666666667,3.66666666666667,21.0,10.0,11.0,55.0
268,73,4,0.0,14,1.0,71.875,0.6326184,3.45982142857143,3.0,1.0,2.4,2.0,1.8,1.0,0.666666666666667,3.66666666666667,21.0,10.0,11.0,55.0
268,74,4,0.0,13,1.0,34.89583333,0.1732368,3.45982142857143,3.0,1.0,2.4,2.0,1.8,1.0,0.666666666666667,3.66666666666667,21.0,10.0,11.0,55.0
268,75,4,0.0,14,1.0,18.75,0.7334719,3.45982142857143,3.0,1.0,2.4,2.0,1.8,1.0,0.666666666666667,3.66666666666667,21.0,10.0,11.0,55.0
268,76,4,0.0,13,1.0,20.3125,0.4333834,3.45982142857143,3.0,1.0,2.4,2.0,1.8,1.0,0.666666666666667,3.66666666666667,21.0,10.0,11.0,55.0
268,77,4,0.0,13,1.0,65.625,0.5427492,3.45982142857143,3.0,1.0,2.4,2.0,1.8,1.0,0.666666666666667,3.66666666666667,21.0,10.0,11.0,55.0
268,78,4,0.0,13,0.0,17.70833333,0.6114356,3.45982142857143,3.0,1.0,2.4,2.0,1.8,1.0,0.666666666666667,3.66666666666667,21.0,10.0,11.0,55.0
268,79,4,0.0,14,1.0,59.63541667,0.9363022,3.45982142857143,3.0,1.0,2.4,2.0,1.8,1.0,0.666666666666667,3.66666666666667,21.0,10.0,11.0,55.0
268,80,4,0.0,14,1.0,81.51041667,0.2272093,3.45982142857143,3.0,1.0,2.4,2.0,1.8,1.0,0.666666666666667,3.66666666666667,21.0,10.0,11.0,55.0
268,81,5,0.0,12,1.0,83.59375,0.249186,3.45982142857143,3.0,1.0,2.4,2.0,1.8,1.0,0.666666666666667,3.66666666666667,21.0,10.0,11.0,55.0
268,82,5,0.0,12,0.0,18.48958333,0.4021873,3.45982142857143,3.0,1.0,2.4,2.0,1.8,1.0,0.666666666666667,3.66666666666667,21.0,10.0,11.0,55.0
268,83,5,0.0,14,1.0,70.3125,0.2108243,3.45982142857143,3.0,1.0,2.4,2.0,1.8,1.0,0.666666666666667,3.66666666666667,21.0,10.0,11.0,55.0
268,84,5,0.0,14,1.0,95.05208333,0.2333865,3.45982142857143,3.0,1.0,2.4,2.0,1.8,1.0,0.666666666666667,3.66666666666667,21.0,10.0,11.0,55.0
268,85,5,0.0,14,1.0,85.15625,0.1950251,3.45982142857143,3.0,1.0,2.4,2.0,1.8,1.0,0.666666666666667,3.66666666666667,21.0,10.0,11.0,55.0
268,86,5,0.0,13,1.0,44.27083333,0.6516419,3.45982142857143,3.0,1.0,2.4,2.0,1.8,1.0,0.666666666666667,3.66666666666667,21.0,10.0,11.0,55.0
268,87,5,0.0,12,0.0,67.70833333,0.2227623,3.45982142857143,3.0,1.0,2.4,2.0,1.8,1.0,0.666666666666667,3.66666666666667,21.0,10.0,11.0,55.0
268,88,5,0.0,14,1.0,65.88541667,0.3366879,3.45982142857143,3.0,1.0,2.4,2.0,1.8,1.0,0.666666666666667,3.66666666666667,21.0,10.0,11.0,55.0
268,89,5,0.0,13,0.0,78.90625,0.8334094,3.45982142857143,3.0,1.0,2.4,2.0,1.8,1.0,0.666666666666667,3.66666666666667,21.0,10.0,11.0,55.0
268,90,5,0.0,14,1.0,97.91666667,0.2333452,3.45982142857143,3.0,1.0,2.4,2.0,1.8,1.0,0.666666666666667,3.66666666666667,21.0,10.0,11.0,55.0
268,91,5,0.0,13,1.0,93.22916667,0.2333255,3.45982142857143,3.0,1.0,2.4,2.0,1.8,1.0,0.666666666666667,3.66666666666667,21.0,10.0,11.0,55.0
268,92,5,0.0,14,1.0,21.35416667,0.2000915,3.45982142857143,3.0,1.0,2.4,2.0,1.8,1.0,0.666666666666667,3.66666666666667,21.0,10.0,11.0,55.0
268,93,5,0.0,14,1.0,0.0,0.9669823,3.45982142857143,3.0,1.0,2.4,2.0,1.8,1.0,0.666666666666667,3.66666666666667,21.0,10.0,11.0,55.0
268,94,5,0.0,13,1.0,90.36458333,0.1964177,3.45982142857143,3.0,1.0,2.4,2.0,1.8,1.0,0.666666666666667,3.66666666666667,21.0,10.0,11.0,55.0
268,95,5,0.0,13,0.0,14.58333333,0.6427822,3.45982142857143,3.0,1.0,2.4,2.0,1.8,1.0,0.666666666666667,3.66666666666667,21.0,10.0,11.0,55.0
268,96,5,0.0,14,0.0,7.291666667,0.34203,3.45982142857143,3.0,1.0,2.4,2.0,1.8,1.0,0.666666666666667,3.66666666666667,21.0,10.0,11.0,55.0
268,97,5,0.0,14,1.0,63.02083333,0.4575376,3.45982142857143,3.0,1.0,2.4,2.0,1.8,1.0,0.666666666666667,3.66666666666667,21.0,10.0,11.0,55.0
268,98,5,0.0,14,0.0,6.25,0.6958867,3.45982142857143,3.0,1.0,2.4,2.0,1.8,1.0,0.666666666666667,3.66666666666667,21.0,10.0,11.0,55.0
268,99,5,0.0,15,1.0,100.0,0.3192817,3.45982142857143,3.0,1.0,2.4,2.0,1.8,1.0,0.666666666666667,3.66666666666667,21.0,10.0,11.0,55.0
268,100,5,0.0,15,1.0,100.0,0.2467394,3.45982142857143,3.0,1.0,2.4,2.0,1.8,1.0,0.666666666666667,3.66666666666667,21.0,10.0,11.0,55.0
268,101,6,0.0,14,1.0,100.0,0.2641982,3.45982142857143,3.0,1.0,2.4,2.0,1.8,1.0,0.666666666666667,3.66666666666667,21.0,10.0,11.0,55.0
268,102,6,0.0,14,0.0,0.0,0.6335971,3.45982142857143,3.0,1.0,2.4,2.0,1.8,1.0,0.666666666666667,3.66666666666667,21.0,10.0,11.0,55.0
268,103,6,0.0,15,1.0,100.0,0.1736185,3.45982142857143,3.0,1.0,2.4,2.0,1.8,1.0,0.666666666666667,3.66666666666667,21.0,10.0,11.0,55.0
268,104,6,0.0,15,1.0,78.125,0.2168164,3.45982142857143,3.0,1.0,2.4,2.0,1.8,1.0,0.666666666666667,3.66666666666667,21.0,10.0,11.0,55.0
268,105,6,0.0,15,1.0,72.13541667,0.2001721,3.45982142857143,3.0,1.0,2.4,2.0,1.8,1.0,0.666666666666667,3.66666666666667,21.0,10.0,11.0,55.0
268,106,6,0.0,15,1.0,75.52083333,0.4667016,3.45982142857143,3.0,1.0,2.4,2.0,1.8,1.0,0.666666666666667,3.66666666666667,21.0,10.0,11.0,55.0
268,107,6,0.0,15,1.0,90.625,0.2177931,3.45982142857143,3.0,1.0,2.4,2.0,1.8,1.0,0.666666666666667,3.66666666666667,21.0,10.0,11.0,55.0
268,108,6,0.0,15,1.0,94.79166667,0.2699222,3.45982142857143,3.0,1.0,2.4,2.0,1.8,1.0,0.666666666666667,3.66666666666667,21.0,10.0,11.0,55.0
268,109,6,0.0,15,1.0,100.0,0.1809327,3.45982142857143,3.0,1.0,2.4,2.0,1.8,1.0,0.666666666666667,3.66666666666667,21.0,10.0,11.0,55.0
268,110,6,0.0,15,1.0,79.16666667,0.1884979,3.45982142857143,3.0,1.0,2.4,2.0,1.8,1.0,0.666666666666667,3.66666666666667,21.0,10.0,11.0,55.0
268,111,6,0.0,15,1.0,100.0,0.2120713,3.45982142857143,3.0,1.0,2.4,2.0,1.8,1.0,0.666666666666667,3.66666666666667,21.0,10.0,11.0,55.0
268,112,6,0.0,13,0.0,7.291666667,0.5499836,3.45982142857143,3.0,1.0,2.4,2.0,1.8,1.0,0.666666666666667,3.66666666666667,21.0,10.0,11.0,55.0
268,113,6,0.0,14,1.0,69.01041667,0.1846778,3.45982142857143,3.0,1.0,2.4,2.0,1.8,1.0,0.666666666666667,3.66666666666667,21.0,10.0,11.0,55.0
268,114,6,0.0,14,1.0,82.8125,0.1830567,3.45982142857143,3.0,1.0,2.4,2.0,1.8,1.0,0.666666666666667,3.66666666666667,21.0,10.0,11.0,55.0
268,115,6,0.0,14,1.0,87.23958333,0.416771,3.45982142857143,3.0,1.0,2.4,2.0,1.8,1.0,0.666666666666667,3.66666666666667,21.0,10.0,11.0,55.0
268,116,6,0.0,13,0.0,72.91666667,0.1898137,3.45982142857143,3.0,1.0,2.4,2.0,1.8,1.0,0.666666666666667,3.66666666666667,21.0,10.0,11.0,55.0
268,117,6,0.0,14,0.0,5.208333333,1.0001519,3.45982142857143,3.0,1.0,2.4,2.0,1.8,1.0,0.666666666666667,3.66666666666667,21.0,10.0,11.0,55.0
268,118,6,0.0,15,1.0,100.0,0.1771318,3.45982142857143,3.0,1.0,2.4,2.0,1.8,1.0,0.666666666666667,3.66666666666667,21.0,10.0,11.0,55.0
268,119,6,0.0,15,1.0,88.54166667,0.2166782,3.45982142857143,3.0,1.0,2.4,2.0,1.8,1.0,0.666666666666667,3.66666666666667,21.0,10.0,11.0,55.0
268,120,6,0.0,14,1.0,72.91666667,0.1668951,3.45982142857143,3.0,1.0,2.4,2.0,1.8,1.0,0.666666666666667,3.66666666666667,21.0,10.0,11.0,55.0
269,1,1,0.0,9,1.0,54.42708333,0.6890341,22.8050595238095,0.5,1.83333333333333,2.0,1.57142857142857,3.2,0.75,1.0,2.66666666666667,25.0,13.0,12.0,46.0
269,2,1,0.0,7,1.0,87.76041667,1.2030629,22.8050595238095,0.5,1.83333333333333,2.0,1.57142857142857,3.2,0.75,1.0,2.66666666666667,25.0,13.0,12.0,46.0
269,3,1,0.0,6,1.0,71.35416667,1.1192552,22.8050595238095,0.5,1.83333333333333,2.0,1.57142857142857,3.2,0.75,1.0,2.66666666666667,25.0,13.0,12.0,46.0
269,4,1,0.0,4,0.0,67.96875,1.6550625,22.8050595238095,0.5,1.83333333333333,2.0,1.57142857142857,3.2,0.75,1.0,2.66666666666667,25.0,13.0,12.0,46.0
269,5,1,0.0,7,1.0,72.65625,0.8869247,22.8050595238095,0.5,1.83333333333333,2.0,1.57142857142857,3.2,0.75,1.0,2.66666666666667,25.0,13.0,12.0,46.0
269,6,1,0.0,6,1.0,31.77083333,2.2803453,22.8050595238095,0.5,1.83333333333333,2.0,1.57142857142857,3.2,0.75,1.0,2.66666666666667,25.0,13.0,12.0,46.0
269,7,1,0.0,6,1.0,89.58333333,0.7220036,22.8050595238095,0.5,1.83333333333333,2.0,1.57142857142857,3.2,0.75,1.0,2.66666666666667,25.0,13.0,12.0,46.0
269,8,1,0.0,5,1.0,55.20833333,0.726966,22.8050595238095,0.5,1.83333333333333,2.0,1.57142857142857,3.2,0.75,1.0,2.66666666666667,25.0,13.0,12.0,46.0
269,9,1,0.0,5,1.0,36.97916667,1.7209964,22.8050595238095,0.5,1.83333333333333,2.0,1.57142857142857,3.2,0.75,1.0,2.66666666666667,25.0,13.0,12.0,46.0
269,10,1,0.0,5,1.0,78.125,0.9263548,22.8050595238095,0.5,1.83333333333333,2.0,1.57142857142857,3.2,0.75,1.0,2.66666666666667,25.0,13.0,12.0,46.0
269,11,1,0.0,5,1.0,30.46875,2.242787,22.8050595238095,0.5,1.83333333333333,2.0,1.57142857142857,3.2,0.75,1.0,2.66666666666667,25.0,13.0,12.0,46.0
269,12,1,0.0,4,1.0,84.375,0.9916845,22.8050595238095,0.5,1.83333333333333,2.0,1.57142857142857,3.2,0.75,1.0,2.66666666666667,25.0,13.0,12.0,46.0
269,13,1,0.0,4,1.0,19.79166667,2.3834245,22.8050595238095,0.5,1.83333333333333,2.0,1.57142857142857,3.2,0.75,1.0,2.66666666666667,25.0,13.0,12.0,46.0
269,14,1,0.0,4,1.0,86.19791667,2.2166688,22.8050595238095,0.5,1.83333333333333,2.0,1.57142857142857,3.2,0.75,1.0,2.66666666666667,25.0,13.0,12.0,46.0
269,15,1,0.0,3,1.0,63.02083333,1.0417601,22.8050595238095,0.5,1.83333333333333,2.0,1.57142857142857,3.2,0.75,1.0,2.66666666666667,25.0,13.0,12.0,46.0
269,16,1,0.0,2,0.0,40.36458333,1.7813834,22.8050595238095,0.5,1.83333333333333,2.0,1.57142857142857,3.2,0.75,1.0,2.66666666666667,25.0,13.0,12.0,46.0
269,17,1,0.0,4,0.0,68.75,0.8836091,22.8050595238095,0.5,1.83333333333333,2.0,1.57142857142857,3.2,0.75,1.0,2.66666666666667,25.0,13.0,12.0,46.0
269,18,1,0.0,5,0.0,78.125,0.7166145,22.8050595238095,0.5,1.83333333333333,2.0,1.57142857142857,3.2,0.75,1.0,2.66666666666667,25.0,13.0,12.0,46.0
269,19,1,0.0,5,1.0,21.61458333,1.3502799,22.8050595238095,0.5,1.83333333333333,2.0,1.57142857142857,3.2,0.75,1.0,2.66666666666667,25.0,13.0,12.0,46.0
269,20,1,0.0,5,1.0,63.80208333,2.2004311,22.8050595238095,0.5,1.83333333333333,2.0,1.57142857142857,3.2,0.75,1.0,2.66666666666667,25.0,13.0,12.0,46.0
269,21,2,0.0,5,1.0,75.0,0.7146514,22.8050595238095,0.5,1.83333333333333,2.0,1.57142857142857,3.2,0.75,1.0,2.66666666666667,25.0,13.0,12.0,46.0
269,22,2,0.0,5,1.0,86.45833333,0.8221415,22.8050595238095,0.5,1.83333333333333,2.0,1.57142857142857,3.2,0.75,1.0,2.66666666666667,25.0,13.0,12.0,46.0
269,23,2,0.0,5,0.0,71.35416667,1.2502304,22.8050595238095,0.5,1.83333333333333,2.0,1.57142857142857,3.2,0.75,1.0,2.66666666666667,25.0,13.0,12.0,46.0
269,24,2,0.0,5,0.0,85.15625,1.2015525,22.8050595238095,0.5,1.83333333333333,2.0,1.57142857142857,3.2,0.75,1.0,2.66666666666667,25.0,13.0,12.0,46.0
269,25,2,0.0,6,1.0,100.0,0.3498174,22.8050595238095,0.5,1.83333333333333,2.0,1.57142857142857,3.2,0.75,1.0,2.66666666666667,25.0,13.0,12.0,46.0
269,26,2,0.0,6,0.0,38.80208333,2.4394199,22.8050595238095,0.5,1.83333333333333,2.0,1.57142857142857,3.2,0.75,1.0,2.66666666666667,25.0,13.0,12.0,46.0
269,27,2,0.0,7,0.0,23.17708333,2.4809658,22.8050595238095,0.5,1.83333333333333,2.0,1.57142857142857,3.2,0.75,1.0,2.66666666666667,25.0,13.0,12.0,46.0
269,28,2,0.0,11,1.0,66.14583333,0.5169627,22.8050595238095,0.5,1.83333333333333,2.0,1.57142857142857,3.2,0.75,1.0,2.66666666666667,25.0,13.0,12.0,46.0
269,29,2,0.0,9,0.0,100.0,0.4003308,22.8050595238095,0.5,1.83333333333333,2.0,1.57142857142857,3.2,0.75,1.0,2.66666666666667,25.0,13.0,12.0,46.0
269,30,2,0.0,12,1.0,79.6875,0.6609918,22.8050595238095,0.5,1.83333333333333,2.0,1.57142857142857,3.2,0.75,1.0,2.66666666666667,25.0,13.0,12.0,46.0
269,31,2,0.0,11,0.0,71.61458333,0.9167878,22.8050595238095,0.5,1.83333333333333,2.0,1.57142857142857,3.2,0.75,1.0,2.66666666666667,25.0,13.0,12.0,46.0
269,32,2,0.0,14,1.0,100.0,0.4520473,22.8050595238095,0.5,1.83333333333333,2.0,1.57142857142857,3.2,0.75,1.0,2.66666666666667,25.0,13.0,12.0,46.0
269,33,2,0.0,13,1.0,100.0,0.3368633,22.8050595238095,0.5,1.83333333333333,2.0,1.57142857142857,3.2,0.75,1.0,2.66666666666667,25.0,13.0,12.0,46.0
269,34,2,0.0,12,1.0,87.76041667,1.2720216,22.8050595238095,0.5,1.83333333333333,2.0,1.57142857142857,3.2,0.75,1.0,2.66666666666667,25.0,13.0,12.0,46.0
269,35,2,0.0,12,0.0,64.58333333,1.5204377,22.8050595238095,0.5,1.83333333333333,2.0,1.57142857142857,3.2,0.75,1.0,2.66666666666667,25.0,13.0,12.0,46.0
269,36,2,0.0,13,1.0,71.35416667,0.7456528,22.8050595238095,0.5,1.83333333333333,2.0,1.57142857142857,3.2,0.75,1.0,2.66666666666667,25.0,13.0,12.0,46.0
269,37,2,0.0,12,1.0,82.29166667,0.8900094,22.8050595238095,0.5,1.83333333333333,2.0,1.57142857142857,3.2,0.75,1.0,2.66666666666667,25.0,13.0,12.0,46.0
269,38,2,0.0,12,1.0,100.0,0.4846387,22.8050595238095,0.5,1.83333333333333,2.0,1.57142857142857,3.2,0.75,1.0,2.66666666666667,25.0,13.0,12.0,46.0
269,39,2,0.0,12,1.0,16.66666667,1.6285591,22.8050595238095,0.5,1.83333333333333,2.0,1.57142857142857,3.2,0.75,1.0,2.66666666666667,25.0,13.0,12.0,46.0
269,40,2,0.0,12,1.0,60.15625,0.4816543,22.8050595238095,0.5,1.83333333333333,2.0,1.57142857142857,3.2,0.75,1.0,2.66666666666667,25.0,13.0,12.0,46.0
269,41,3,0.0,12,1.0,16.92708333,0.750892,22.8050595238095,0.5,1.83333333333333,2.0,1.57142857142857,3.2,0.75,1.0,2.66666666666667,25.0,13.0,12.0,46.0
269,42,3,0.0,12,1.0,79.94791667,0.4617812,22.8050595238095,0.5,1.83333333333333,2.0,1.57142857142857,3.2,0.75,1.0,2.66666666666667,25.0,13.0,12.0,46.0
269,43,3,0.0,12,1.0,66.66666667,0.4415345,22.8050595238095,0.5,1.83333333333333,2.0,1.57142857142857,3.2,0.75,1.0,2.66666666666667,25.0,13.0,12.0,46.0
269,44,3,0.0,11,1.0,89.0625,0.6837452,22.8050595238095,0.5,1.83333333333333,2.0,1.57142857142857,3.2,0.75,1.0,2.66666666666667,25.0,13.0,12.0,46.0
269,45,3,0.0,11,1.0,15.625,1.9348421,22.8050595238095,0.5,1.83333333333333,2.0,1.57142857142857,3.2,0.75,1.0,2.66666666666667,25.0,13.0,12.0,46.0
269,46,3,0.0,11,1.0,67.44791667,0.7844476,22.8050595238095,0.5,1.83333333333333,2.0,1.57142857142857,3.2,0.75,1.0,2.66666666666667,25.0,13.0,12.0,46.0
269,47,3,0.0,10,0.0,32.55208333,2.3745251,22.8050595238095,0.5,1.83333333333333,2.0,1.57142857142857,3.2,0.75,1.0,2.66666666666667,25.0,13.0,12.0,46.0
269,48,3,0.0,11,1.0,39.32291667,1.4838781,22.8050595238095,0.5,1.83333333333333,2.0,1.57142857142857,3.2,0.75,1.0,2.66666666666667,25.0,13.0,12.0,46.0
269,49,3,0.0,11,1.0,56.77083333,0.9492044,22.8050595238095,0.5,1.83333333333333,2.0,1.57142857142857,3.2,0.75,1.0,2.66666666666667,25.0,13.0,12.0,46.0
269,50,3,0.0,11,0.0,55.72916667,0.6196066,22.8050595238095,0.5,1.83333333333333,2.0,1.57142857142857,3.2,0.75,1.0,2.66666666666667,25.0,13.0,12.0,46.0
269,51,3,0.0,11,1.0,75.0,0.7717049,22.8050595238095,0.5,1.83333333333333,2.0,1.57142857142857,3.2,0.75,1.0,2.66666666666667,25.0,13.0,12.0,46.0
269,52,3,0.0,11,0.0,78.38541667,1.674373,22.8050595238095,0.5,1.83333333333333,2.0,1.57142857142857,3.2,0.75,1.0,2.66666666666667,25.0,13.0,12.0,46.0
269,53,3,0.0,12,1.0,71.35416667,0.4183025,22.8050595238095,0.5,1.83333333333333,2.0,1.57142857142857,3.2,0.75,1.0,2.66666666666667,25.0,13.0,12.0,46.0
269,54,3,0.0,12,1.0,19.27083333,1.8254176,22.8050595238095,0.5,1.83333333333333,2.0,1.57142857142857,3.2,0.75,1.0,2.66666666666667,25.0,13.0,12.0,46.0
269,55,3,0.0,12,1.0,90.10416667,0.4002985,22.8050595238095,0.5,1.83333333333333,2.0,1.57142857142857,3.2,0.75,1.0,2.66666666666667,25.0,13.0,12.0,46.0
269,56,3,0.0,11,1.0,19.53125,1.7235314,22.8050595238095,0.5,1.83333333333333,2.0,1.57142857142857,3.2,0.75,1.0,2.66666666666667,25.0,13.0,12.0,46.0
269,57,3,0.0,11,0.0,61.19791667,1.5503431,22.8050595238095,0.5,1.83333333333333,2.0,1.57142857142857,3.2,0.75,1.0,2.66666666666667,25.0,13.0,12.0,46.0
269,58,3,0.0,12,1.0,64.58333333,0.3666111,22.8050595238095,0.5,1.83333333333333,2.0,1.57142857142857,3.2,0.75,1.0,2.66666666666667,25.0,13.0,12.0,46.0
269,59,3,0.0,12,1.0,60.41666667,1.2099017,22.8050595238095,0.5,1.83333333333333,2.0,1.57142857142857,3.2,0.75,1.0,2.66666666666667,25.0,13.0,12.0,46.0
269,60,3,0.0,11,1.0,69.79166667,0.8858493,22.8050595238095,0.5,1.83333333333333,2.0,1.57142857142857,3.2,0.75,1.0,2.66666666666667,25.0,13.0,12.0,46.0
269,61,4,0.0,11,1.0,76.04166667,1.0740441,22.8050595238095,0.5,1.83333333333333,2.0,1.57142857142857,3.2,0.75,1.0,2.66666666666667,25.0,13.0,12.0,46.0
269,62,4,0.0,11,1.0,8.59375,1.3167403,22.8050595238095,0.5,1.83333333333333,2.0,1.57142857142857,3.2,0.75,1.0,2.66666666666667,25.0,13.0,12.0,46.0
269,63,4,0.0,11,0.0,0.0,1.640063,22.8050595238095,0.5,1.83333333333333,2.0,1.57142857142857,3.2,0.75,1.0,2.66666666666667,25.0,13.0,12.0,46.0
269,64,4,0.0,11,0.0,0.0,0.4002118,22.8050595238095,0.5,1.83333333333333,2.0,1.57142857142857,3.2,0.75,1.0,2.66666666666667,25.0,13.0,12.0,46.0
269,65,4,0.0,12,1.0,100.0,0.3232924,22.8050595238095,0.5,1.83333333333333,2.0,1.57142857142857,3.2,0.75,1.0,2.66666666666667,25.0,13.0,12.0,46.0
269,66,4,0.0,12,0.0,70.3125,0.9113638,22.8050595238095,0.5,1.83333333333333,2.0,1.57142857142857,3.2,0.75,1.0,2.66666666666667,25.0,13.0,12.0,46.0
269,67,4,0.0,13,1.0,100.0,0.6479148,22.8050595238095,0.5,1.83333333333333,2.0,1.57142857142857,3.2,0.75,1.0,2.66666666666667,25.0,13.0,12.0,46.0
269,68,4,0.0,12,1.0,83.33333333,2.0254778,22.8050595238095,0.5,1.83333333333333,2.0,1.57142857142857,3.2,0.75,1.0,2.66666666666667,25.0,13.0,12.0,46.0
269,69,4,0.0,12,1.0,88.02083333,0.6525884,22.8050595238095,0.5,1.83333333333333,2.0,1.57142857142857,3.2,0.75,1.0,2.66666666666667,25.0,13.0,12.0,46.0
269,70,4,0.0,12,1.0,87.76041667,0.3589937,22.8050595238095,0.5,1.83333333333333,2.0,1.57142857142857,3.2,0.75,1.0,2.66666666666667,25.0,13.0,12.0,46.0
269,71,4,0.0,12,1.0,78.38541667,0.858721,22.8050595238095,0.5,1.83333333333333,2.0,1.57142857142857,3.2,0.75,1.0,2.66666666666667,25.0,13.0,12.0,46.0
269,72,4,0.0,12,0.0,11.97916667,2.0637216,22.8050595238095,0.5,1.83333333333333,2.0,1.57142857142857,3.2,0.75,1.0,2.66666666666667,25.0,13.0,12.0,46.0
269,73,4,0.0,13,1.0,100.0,0.5977059,22.8050595238095,0.5,1.83333333333333,2.0,1.57142857142857,3.2,0.75,1.0,2.66666666666667,25.0,13.0,12.0,46.0
269,74,4,0.0,13,1.0,100.0,0.3138982,22.8050595238095,0.5,1.83333333333333,2.0,1.57142857142857,3.2,0.75,1.0,2.66666666666667,25.0,13.0,12.0,46.0
269,75,4,0.0,13,1.0,87.23958333,1.3685995,22.8050595238095,0.5,1.83333333333333,2.0,1.57142857142857,3.2,0.75,1.0,2.66666666666667,25.0,13.0,12.0,46.0
269,76,4,0.0,13,1.0,100.0,1.0391279,22.8050595238095,0.5,1.83333333333333,2.0,1.57142857142857,3.2,0.75,1.0,2.66666666666667,25.0,13.0,12.0,46.0
269,77,4,0.0,13,1.0,100.0,0.7957168,22.8050595238095,0.5,1.83333333333333,2.0,1.57142857142857,3.2,0.75,1.0,2.66666666666667,25.0,13.0,12.0,46.0
269,78,4,0.0,13,1.0,92.44791667,0.4494236,22.8050595238095,0.5,1.83333333333333,2.0,1.57142857142857,3.2,0.75,1.0,2.66666666666667,25.0,13.0,12.0,46.0
269,79,4,0.0,12,1.0,88.28125,2.7920435,22.8050595238095,0.5,1.83333333333333,2.0,1.57142857142857,3.2,0.75,1.0,2.66666666666667,25.0,13.0,12.0,46.0
269,80,4,0.0,11,1.0,66.92708333,0.8971593,22.8050595238095,0.5,1.83333333333333,2.0,1.57142857142857,3.2,0.75,1.0,2.66666666666667,25.0,13.0,12.0,46.0
269,81,5,0.0,11,1.0,82.29166667,1.0876429,22.8050595238095,0.5,1.83333333333333,2.0,1.57142857142857,3.2,0.75,1.0,2.66666666666667,25.0,13.0,12.0,46.0
269,82,5,0.0,10,0.0,92.96875,0.3300351,22.8050595238095,0.5,1.83333333333333,2.0,1.57142857142857,3.2,0.75,1.0,2.66666666666667,25.0,13.0,12.0,46.0
269,83,5,0.0,13,1.0,79.6875,0.5383557,22.8050595238095,0.5,1.83333333333333,2.0,1.57142857142857,3.2,0.75,1.0,2.66666666666667,25.0,13.0,12.0,46.0
269,84,5,0.0,12,1.0,84.11458333,0.5727735,22.8050595238095,0.5,1.83333333333333,2.0,1.57142857142857,3.2,0.75,1.0,2.66666666666667,25.0,13.0,12.0,46.0
269,85,5,0.0,11,1.0,72.13541667,0.2946808,22.8050595238095,0.5,1.83333333333333,2.0,1.57142857142857,3.2,0.75,1.0,2.66666666666667,25.0,13.0,12.0,46.0
269,86,5,0.0,11,1.0,23.95833333,1.300137,22.8050595238095,0.5,1.83333333333333,2.0,1.57142857142857,3.2,0.75,1.0,2.66666666666667,25.0,13.0,12.0,46.0
269,87,5,0.0,10,1.0,58.07291667,1.4594628,22.8050595238095,0.5,1.83333333333333,2.0,1.57142857142857,3.2,0.75,1.0,2.66666666666667,25.0,13.0,12.0,46.0
269,88,5,0.0,10,1.0,100.0,0.2898544,22.8050595238095,0.5,1.83333333333333,2.0,1.57142857142857,3.2,0.75,1.0,2.66666666666667,25.0,13.0,12.0,46.0
269,89,5,0.0,10,1.0,28.125,0.497151,22.8050595238095,0.5,1.83333333333333,2.0,1.57142857142857,3.2,0.75,1.0,2.66666666666667,25.0,13.0,12.0,46.0
269,90,5,0.0,10,1.0,58.85416667,0.3386269,22.8050595238095,0.5,1.83333333333333,2.0,1.57142857142857,3.2,0.75,1.0,2.66666666666667,25.0,13.0,12.0,46.0
269,91,5,0.0,10,1.0,61.97916667,0.4980185,22.8050595238095,0.5,1.83333333333333,2.0,1.57142857142857,3.2,0.75,1.0,2.66666666666667,25.0,13.0,12.0,46.0
269,92,5,0.0,9,1.0,61.71875,0.4316863,22.8050595238095,0.5,1.83333333333333,2.0,1.57142857142857,3.2,0.75,1.0,2.66666666666667,25.0,13.0,12.0,46.0
269,93,5,0.0,9,1.0,52.60416667,0.4170013,22.8050595238095,0.5,1.83333333333333,2.0,1.57142857142857,3.2,0.75,1.0,2.66666666666667,25.0,13.0,12.0,46.0
269,94,5,0.0,9,1.0,63.54166667,0.5712377,22.8050595238095,0.5,1.83333333333333,2.0,1.57142857142857,3.2,0.75,1.0,2.66666666666667,25.0,13.0,12.0,46.0
269,95,5,0.0,9,1.0,100.0,0.8152591,22.8050595238095,0.5,1.83333333333333,2.0,1.57142857142857,3.2,0.75,1.0,2.66666666666667,25.0,13.0,12.0,46.0
269,96,5,0.0,8,0.0,100.0,0.6396873,22.8050595238095,0.5,1.83333333333333,2.0,1.57142857142857,3.2,0.75,1.0,2.66666666666667,25.0,13.0,12.0,46.0
269,97,5,0.0,9,0.0,66.66666667,1.3276228,22.8050595238095,0.5,1.83333333333333,2.0,1.57142857142857,3.2,0.75,1.0,2.66666666666667,25.0,13.0,12.0,46.0
269,98,5,0.0,9,1.0,86.45833333,0.262144,22.8050595238095,0.5,1.83333333333333,2.0,1.57142857142857,3.2,0.75,1.0,2.66666666666667,25.0,13.0,12.0,46.0
269,99,5,0.0,9,0.0,56.25,0.8480223,22.8050595238095,0.5,1.83333333333333,2.0,1.57142857142857,3.2,0.75,1.0,2.66666666666667,25.0,13.0,12.0,46.0
269,100,5,0.0,9,0.0,100.0,0.2782129,22.8050595238095,0.5,1.83333333333333,2.0,1.57142857142857,3.2,0.75,1.0,2.66666666666667,25.0,13.0,12.0,46.0
269,101,6,0.0,13,1.0,87.5,0.3076784,22.8050595238095,0.5,1.83333333333333,2.0,1.57142857142857,3.2,0.75,1.0,2.66666666666667,25.0,13.0,12.0,46.0
269,102,6,0.0,13,1.0,100.0,0.6170294,22.8050595238095,0.5,1.83333333333333,2.0,1.57142857142857,3.2,0.75,1.0,2.66666666666667,25.0,13.0,12.0,46.0
269,103,6,0.0,10,0.0,76.30208333,2.1491174,22.8050595238095,0.5,1.83333333333333,2.0,1.57142857142857,3.2,0.75,1.0,2.66666666666667,25.0,13.0,12.0,46.0
269,104,6,0.0,13,1.0,72.39583333,0.9558567,22.8050595238095,0.5,1.83333333333333,2.0,1.57142857142857,3.2,0.75,1.0,2.66666666666667,25.0,13.0,12.0,46.0
269,105,6,0.0,10,1.0,79.94791667,0.6273878,22.8050595238095,0.5,1.83333333333333,2.0,1.57142857142857,3.2,0.75,1.0,2.66666666666667,25.0,13.0,12.0,46.0
269,106,6,0.0,10,1.0,13.02083333,0.5874497,22.8050595238095,0.5,1.83333333333333,2.0,1.57142857142857,3.2,0.75,1.0,2.66666666666667,25.0,13.0,12.0,46.0
269,107,6,0.0,10,0.0,37.5,0.6324886,22.8050595238095,0.5,1.83333333333333,2.0,1.57142857142857,3.2,0.75,1.0,2.66666666666667,25.0,13.0,12.0,46.0
269,108,6,0.0,13,1.0,80.98958333,0.3930096,22.8050595238095,0.5,1.83333333333333,2.0,1.57142857142857,3.2,0.75,1.0,2.66666666666667,25.0,13.0,12.0,46.0
269,109,6,0.0,10,0.0,41.40625,0.4168899,22.8050595238095,0.5,1.83333333333333,2.0,1.57142857142857,3.2,0.75,1.0,2.66666666666667,25.0,13.0,12.0,46.0
269,110,6,0.0,11,1.0,100.0,0.2342044,22.8050595238095,0.5,1.83333333333333,2.0,1.57142857142857,3.2,0.75,1.0,2.66666666666667,25.0,13.0,12.0,46.0
269,111,6,0.0,13,1.0,100.0,0.3400581,22.8050595238095,0.5,1.83333333333333,2.0,1.57142857142857,3.2,0.75,1.0,2.66666666666667,25.0,13.0,12.0,46.0
269,112,6,0.0,11,0.0,50.0,0.2570729,22.8050595238095,0.5,1.83333333333333,2.0,1.57142857142857,3.2,0.75,1.0,2.66666666666667,25.0,13.0,12.0,46.0
269,113,6,0.0,11,1.0,100.0,0.2276605,22.8050595238095,0.5,1.83333333333333,2.0,1.57142857142857,3.2,0.75,1.0,2.66666666666667,25.0,13.0,12.0,46.0
269,114,6,0.0,11,1.0,74.21875,0.5403285,22.8050595238095,0.5,1.83333333333333,2.0,1.57142857142857,3.2,0.75,1.0,2.66666666666667,25.0,13.0,12.0,46.0
269,115,6,0.0,13,1.0,100.0,0.4015932,22.8050595238095,0.5,1.83333333333333,2.0,1.57142857142857,3.2,0.75,1.0,2.66666666666667,25.0,13.0,12.0,46.0
269,116,6,0.0,11,1.0,84.375,0.4777185,22.8050595238095,0.5,1.83333333333333,2.0,1.57142857142857,3.2,0.75,1.0,2.66666666666667,25.0,13.0,12.0,46.0
269,117,6,0.0,13,1.0,91.40625,0.2560927,22.8050595238095,0.5,1.83333333333333,2.0,1.57142857142857,3.2,0.75,1.0,2.66666666666667,25.0,13.0,12.0,46.0
269,118,6,0.0,11,1.0,91.14583333,0.2125933,22.8050595238095,0.5,1.83333333333333,2.0,1.57142857142857,3.2,0.75,1.0,2.66666666666667,25.0,13.0,12.0,46.0
269,119,6,0.0,10,0.0,35.9375,1.2213425,22.8050595238095,0.5,1.83333333333333,2.0,1.57142857142857,3.2,0.75,1.0,2.66666666666667,25.0,13.0,12.0,46.0
269,120,6,0.0,11,1.0,91.14583333,0.2618947,22.8050595238095,0.5,1.83333333333333,2.0,1.57142857142857,3.2,0.75,1.0,2.66666666666667,25.0,13.0,12.0,46.0
270,1,1,1.0,9,1.0,31.51041667,2.4668747,38.3184523809524,1.25,0.833333333333333,1.4,3.28571428571429,2.8,3.0,2.0,5.0,22.0,10.0,12.0,60.0
270,2,1,1.0,7,1.0,29.94791667,1.3345952,38.3184523809524,1.25,0.833333333333333,1.4,3.28571428571429,2.8,3.0,2.0,5.0,22.0,10.0,12.0,60.0
270,3,1,1.0,6,0.0,62.23958333,1.6708302,38.3184523809524,1.25,0.833333333333333,1.4,3.28571428571429,2.8,3.0,2.0,5.0,22.0,10.0,12.0,60.0
270,4,1,1.0,9,0.0,75.52083333,1.4367668,38.3184523809524,1.25,0.833333333333333,1.4,3.28571428571429,2.8,3.0,2.0,5.0,22.0,10.0,12.0,60.0
270,5,1,1.0,13,1.0,72.13541667,1.8559329,38.3184523809524,1.25,0.833333333333333,1.4,3.28571428571429,2.8,3.0,2.0,5.0,22.0,10.0,12.0,60.0
270,6,1,1.0,12,1.0,80.20833333,1.2841114,38.3184523809524,1.25,0.833333333333333,1.4,3.28571428571429,2.8,3.0,2.0,5.0,22.0,10.0,12.0,60.0
270,7,1,1.0,12,0.0,72.13541667,1.3345045,38.3184523809524,1.25,0.833333333333333,1.4,3.28571428571429,2.8,3.0,2.0,5.0,22.0,10.0,12.0,60.0
270,8,1,1.0,14,1.0,84.11458333,1.2003489,38.3184523809524,1.25,0.833333333333333,1.4,3.28571428571429,2.8,3.0,2.0,5.0,22.0,10.0,12.0,60.0
270,9,1,1.0,13,1.0,92.1875,1.5119566,38.3184523809524,1.25,0.833333333333333,1.4,3.28571428571429,2.8,3.0,2.0,5.0,22.0,10.0,12.0,60.0
270,10,1,1.0,13,0.0,27.08333333,1.5167522,38.3184523809524,1.25,0.833333333333333,1.4,3.28571428571429,2.8,3.0,2.0,5.0,22.0,10.0,12.0,60.0
270,11,1,1.0,14,1.0,91.14583333,1.1004234,38.3184523809524,1.25,0.833333333333333,1.4,3.28571428571429,2.8,3.0,2.0,5.0,22.0,10.0,12.0,60.0
270,12,1,1.0,14,1.0,91.40625,1.083611,38.3184523809524,1.25,0.833333333333333,1.4,3.28571428571429,2.8,3.0,2.0,5.0,22.0,10.0,12.0,60.0
270,13,1,1.0,13,1.0,72.39583333,1.0171482,38.3184523809524,1.25,0.833333333333333,1.4,3.28571428571429,2.8,3.0,2.0,5.0,22.0,10.0,12.0,60.0
270,14,1,1.0,13,0.0,100.0,0.9502711,38.3184523809524,1.25,0.833333333333333,1.4,3.28571428571429,2.8,3.0,2.0,5.0,22.0,10.0,12.0,60.0
270,15,1,1.0,14,1.0,82.29166667,0.816619,38.3184523809524,1.25,0.833333333333333,1.4,3.28571428571429,2.8,3.0,2.0,5.0,22.0,10.0,12.0,60.0
270,16,1,1.0,14,1.0,100.0,0.966918,38.3184523809524,1.25,0.833333333333333,1.4,3.28571428571429,2.8,3.0,2.0,5.0,22.0,10.0,12.0,60.0
270,17,1,1.0,14,1.0,79.94791667,1.0000422,38.3184523809524,1.25,0.833333333333333,1.4,3.28571428571429,2.8,3.0,2.0,5.0,22.0,10.0,12.0,60.0
270,18,1,1.0,13,1.0,100.0,1.1166667,38.3184523809524,1.25,0.833333333333333,1.4,3.28571428571429,2.8,3.0,2.0,5.0,22.0,10.0,12.0,60.0
270,19,1,1.0,13,1.0,70.57291667,1.7503076,38.3184523809524,1.25,0.833333333333333,1.4,3.28571428571429,2.8,3.0,2.0,5.0,22.0,10.0,12.0,60.0
270,20,1,1.0,13,1.0,59.375,1.2670652,38.3184523809524,1.25,0.833333333333333,1.4,3.28571428571429,2.8,3.0,2.0,5.0,22.0,10.0,12.0,60.0
270,21,2,1.0,13,1.0,77.60416667,1.4168165,38.3184523809524,1.25,0.833333333333333,1.4,3.28571428571429,2.8,3.0,2.0,5.0,22.0,10.0,12.0,60.0
270,22,2,1.0,13,1.0,67.1875,1.1072048,38.3184523809524,1.25,0.833333333333333,1.4,3.28571428571429,2.8,3.0,2.0,5.0,22.0,10.0,12.0,60.0
270,23,2,1.0,13,1.0,79.42708333,0.5276321,38.3184523809524,1.25,0.833333333333333,1.4,3.28571428571429,2.8,3.0,2.0,5.0,22.0,10.0,12.0,60.0
270,24,2,1.0,13,1.0,40.36458333,0.7857288,38.3184523809524,1.25,0.833333333333333,1.4,3.28571428571429,2.8,3.0,2.0,5.0,22.0,10.0,12.0,60.0
270,25,2,1.0,13,1.0,67.70833333,0.8332939,38.3184523809524,1.25,0.833333333333333,1.4,3.28571428571429,2.8,3.0,2.0,5.0,22.0,10.0,12.0,60.0
270,26,2,1.0,12,1.0,76.5625,0.6356947,38.3184523809524,1.25,0.833333333333333,1.4,3.28571428571429,2.8,3.0,2.0,5.0,22.0,10.0,12.0,60.0
270,27,2,1.0,12,0.0,73.95833333,0.8169018,38.3184523809524,1.25,0.833333333333333,1.4,3.28571428571429,2.8,3.0,2.0,5.0,22.0,10.0,12.0,60.0
270,28,2,1.0,13,1.0,77.08333333,0.6336992,38.3184523809524,1.25,0.833333333333333,1.4,3.28571428571429,2.8,3.0,2.0,5.0,22.0,10.0,12.0,60.0
270,29,2,1.0,13,1.0,38.80208333,1.4374304,38.3184523809524,1.25,0.833333333333333,1.4,3.28571428571429,2.8,3.0,2.0,5.0,22.0,10.0,12.0,60.0
270,30,2,1.0,13,0.0,16.14583333,0.78247,38.3184523809524,1.25,0.833333333333333,1.4,3.28571428571429,2.8,3.0,2.0,5.0,22.0,10.0,12.0,60.0
270,31,2,1.0,13,1.0,65.625,0.5065963,38.3184523809524,1.25,0.833333333333333,1.4,3.28571428571429,2.8,3.0,2.0,5.0,22.0,10.0,12.0,60.0
270,32,2,1.0,13,1.0,74.47916667,0.6334581,38.3184523809524,1.25,0.833333333333333,1.4,3.28571428571429,2.8,3.0,2.0,5.0,22.0,10.0,12.0,60.0
270,33,2,1.0,13,1.0,34.63541667,0.4604413,38.3184523809524,1.25,0.833333333333333,1.4,3.28571428571429,2.8,3.0,2.0,5.0,22.0,10.0,12.0,60.0
270,34,2,1.0,13,1.0,15.625,1.0027587,38.3184523809524,1.25,0.833333333333333,1.4,3.28571428571429,2.8,3.0,2.0,5.0,22.0,10.0,12.0,60.0
270,35,2,1.0,12,1.0,79.94791667,0.7503013,38.3184523809524,1.25,0.833333333333333,1.4,3.28571428571429,2.8,3.0,2.0,5.0,22.0,10.0,12.0,60.0
270,36,2,1.0,12,0.0,55.72916667,0.5040093,38.3184523809524,1.25,0.833333333333333,1.4,3.28571428571429,2.8,3.0,2.0,5.0,22.0,10.0,12.0,60.0
270,37,2,1.0,13,1.0,70.3125,0.6403484,38.3184523809524,1.25,0.833333333333333,1.4,3.28571428571429,2.8,3.0,2.0,5.0,22.0,10.0,12.0,60.0
270,38,2,1.0,13,0.0,29.6875,0.6379293,38.3184523809524,1.25,0.833333333333333,1.4,3.28571428571429,2.8,3.0,2.0,5.0,22.0,10.0,12.0,60.0
270,39,2,1.0,13,1.0,76.82291667,0.7834899,38.3184523809524,1.25,0.833333333333333,1.4,3.28571428571429,2.8,3.0,2.0,5.0,22.0,10.0,12.0,60.0
270,40,2,1.0,13,1.0,90.10416667,0.917093,38.3184523809524,1.25,0.833333333333333,1.4,3.28571428571429,2.8,3.0,2.0,5.0,22.0,10.0,12.0,60.0
270,41,3,1.0,13,0.0,10.41666667,0.8638894,38.3184523809524,1.25,0.833333333333333,1.4,3.28571428571429,2.8,3.0,2.0,5.0,22.0,10.0,12.0,60.0
270,42,3,1.0,13,1.0,61.97916667,0.9190481,38.3184523809524,1.25,0.833333333333333,1.4,3.28571428571429,2.8,3.0,2.0,5.0,22.0,10.0,12.0,60.0
270,43,3,1.0,13,1.0,73.17708333,0.5000235,38.3184523809524,1.25,0.833333333333333,1.4,3.28571428571429,2.8,3.0,2.0,5.0,22.0,10.0,12.0,60.0
270,44,3,1.0,13,0.0,63.28125,0.3999882,38.3184523809524,1.25,0.833333333333333,1.4,3.28571428571429,2.8,3.0,2.0,5.0,22.0,10.0,12.0,60.0
270,45,3,1.0,14,1.0,48.17708333,1.048648,38.3184523809524,1.25,0.833333333333333,1.4,3.28571428571429,2.8,3.0,2.0,5.0,22.0,10.0,12.0,60.0
270,46,3,1.0,14,0.0,85.9375,0.617901,38.3184523809524,1.25,0.833333333333333,1.4,3.28571428571429,2.8,3.0,2.0,5.0,22.0,10.0,12.0,60.0
270,47,3,1.0,15,1.0,81.77083333,0.7335419,38.3184523809524,1.25,0.833333333333333,1.4,3.28571428571429,2.8,3.0,2.0,5.0,22.0,10.0,12.0,60.0
270,48,3,1.0,15,1.0,100.0,0.5206551,38.3184523809524,1.25,0.833333333333333,1.4,3.28571428571429,2.8,3.0,2.0,5.0,22.0,10.0,12.0,60.0
270,49,3,1.0,15,1.0,100.0,0.5333558,38.3184523809524,1.25,0.833333333333333,1.4,3.28571428571429,2.8,3.0,2.0,5.0,22.0,10.0,12.0,60.0
270,50,3,1.0,15,1.0,100.0,0.3233594,38.3184523809524,1.25,0.833333333333333,1.4,3.28571428571429,2.8,3.0,2.0,5.0,22.0,10.0,12.0,60.0
270,51,3,1.0,15,1.0,100.0,0.6607117,38.3184523809524,1.25,0.833333333333333,1.4,3.28571428571429,2.8,3.0,2.0,5.0,22.0,10.0,12.0,60.0
270,52,3,1.0,15,1.0,100.0,0.2944745,38.3184523809524,1.25,0.833333333333333,1.4,3.28571428571429,2.8,3.0,2.0,5.0,22.0,10.0,12.0,60.0
270,53,3,1.0,14,1.0,100.0,0.4402805,38.3184523809524,1.25,0.833333333333333,1.4,3.28571428571429,2.8,3.0,2.0,5.0,22.0,10.0,12.0,60.0
270,54,3,1.0,14,1.0,100.0,0.3608834,38.3184523809524,1.25,0.833333333333333,1.4,3.28571428571429,2.8,3.0,2.0,5.0,22.0,10.0,12.0,60.0
270,55,3,1.0,14,1.0,100.0,0.3443654,38.3184523809524,1.25,0.833333333333333,1.4,3.28571428571429,2.8,3.0,2.0,5.0,22.0,10.0,12.0,60.0
270,56,3,1.0,14,1.0,100.0,0.4101493,38.3184523809524,1.25,0.833333333333333,1.4,3.28571428571429,2.8,3.0,2.0,5.0,22.0,10.0,12.0,60.0
270,57,3,1.0,14,1.0,100.0,0.3260465,38.3184523809524,1.25,0.833333333333333,1.4,3.28571428571429,2.8,3.0,2.0,5.0,22.0,10.0,12.0,60.0
270,58,3,1.0,14,1.0,100.0,0.3694328,38.3184523809524,1.25,0.833333333333333,1.4,3.28571428571429,2.8,3.0,2.0,5.0,22.0,10.0,12.0,60.0
270,59,3,1.0,13,1.0,100.0,0.8787774,38.3184523809524,1.25,0.833333333333333,1.4,3.28571428571429,2.8,3.0,2.0,5.0,22.0,10.0,12.0,60.0
270,60,3,1.0,12,1.0,89.32291667,0.703792,38.3184523809524,1.25,0.833333333333333,1.4,3.28571428571429,2.8,3.0,2.0,5.0,22.0,10.0,12.0,60.0
270,61,4,1.0,12,1.0,100.0,0.741799,38.3184523809524,1.25,0.833333333333333,1.4,3.28571428571429,2.8,3.0,2.0,5.0,22.0,10.0,12.0,60.0
270,62,4,1.0,12,1.0,89.58333333,0.3865424,38.3184523809524,1.25,0.833333333333333,1.4,3.28571428571429,2.8,3.0,2.0,5.0,22.0,10.0,12.0,60.0
270,63,4,1.0,11,1.0,42.44791667,0.4727368,38.3184523809524,1.25,0.833333333333333,1.4,3.28571428571429,2.8,3.0,2.0,5.0,22.0,10.0,12.0,60.0
270,64,4,1.0,11,1.0,65.10416667,0.3135676,38.3184523809524,1.25,0.833333333333333,1.4,3.28571428571429,2.8,3.0,2.0,5.0,22.0,10.0,12.0,60.0
270,65,4,1.0,11,0.0,16.40625,1.1978625,38.3184523809524,1.25,0.833333333333333,1.4,3.28571428571429,2.8,3.0,2.0,5.0,22.0,10.0,12.0,60.0
270,66,4,1.0,11,1.0,57.29166667,0.5259369,38.3184523809524,1.25,0.833333333333333,1.4,3.28571428571429,2.8,3.0,2.0,5.0,22.0,10.0,12.0,60.0
270,67,4,1.0,11,1.0,69.53125,0.5500862,38.3184523809524,1.25,0.833333333333333,1.4,3.28571428571429,2.8,3.0,2.0,5.0,22.0,10.0,12.0,60.0
270,68,4,1.0,11,1.0,55.46875,0.5671043,38.3184523809524,1.25,0.833333333333333,1.4,3.28571428571429,2.8,3.0,2.0,5.0,22.0,10.0,12.0,60.0
270,69,4,1.0,11,1.0,63.02083333,0.6695666,38.3184523809524,1.25,0.833333333333333,1.4,3.28571428571429,2.8,3.0,2.0,5.0,22.0,10.0,12.0,60.0
270,70,4,1.0,10,1.0,80.46875,0.5503057,38.3184523809524,1.25,0.833333333333333,1.4,3.28571428571429,2.8,3.0,2.0,5.0,22.0,10.0,12.0,60.0
270,71,4,1.0,10,1.0,66.14583333,0.4331641,38.3184523809524,1.25,0.833333333333333,1.4,3.28571428571429,2.8,3.0,2.0,5.0,22.0,10.0,12.0,60.0
270,72,4,1.0,10,1.0,47.65625,0.4833683,38.3184523809524,1.25,0.833333333333333,1.4,3.28571428571429,2.8,3.0,2.0,5.0,22.0,10.0,12.0,60.0
270,73,4,1.0,9,1.0,13.54166667,0.9965779,38.3184523809524,1.25,0.833333333333333,1.4,3.28571428571429,2.8,3.0,2.0,5.0,22.0,10.0,12.0,60.0
270,74,4,1.0,9,1.0,36.45833333,0.6004069,38.3184523809524,1.25,0.833333333333333,1.4,3.28571428571429,2.8,3.0,2.0,5.0,22.0,10.0,12.0,60.0
270,75,4,1.0,9,1.0,15.625,0.8504534,38.3184523809524,1.25,0.833333333333333,1.4,3.28571428571429,2.8,3.0,2.0,5.0,22.0,10.0,12.0,60.0
270,76,4,1.0,9,0.0,42.70833333,0.3336609,38.3184523809524,1.25,0.833333333333333,1.4,3.28571428571429,2.8,3.0,2.0,5.0,22.0,10.0,12.0,60.0
270,77,4,1.0,9,1.0,62.23958333,0.4338283,38.3184523809524,1.25,0.833333333333333,1.4,3.28571428571429,2.8,3.0,2.0,5.0,22.0,10.0,12.0,60.0
270,78,4,1.0,9,1.0,15.10416667,0.2779621,38.3184523809524,1.25,0.833333333333333,1.4,3.28571428571429,2.8,3.0,2.0,5.0,22.0,10.0,12.0,60.0
270,79,4,1.0,9,0.0,20.57291667,0.4390305,38.3184523809524,1.25,0.833333333333333,1.4,3.28571428571429,2.8,3.0,2.0,5.0,22.0,10.0,12.0,60.0
270,80,4,1.0,9,0.0,3.645833333,0.6838558,38.3184523809524,1.25,0.833333333333333,1.4,3.28571428571429,2.8,3.0,2.0,5.0,22.0,10.0,12.0,60.0
270,81,5,1.0,16,1.0,100.0,0.3169242,38.3184523809524,1.25,0.833333333333333,1.4,3.28571428571429,2.8,3.0,2.0,5.0,22.0,10.0,12.0,60.0
270,82,5,1.0,10,1.0,59.11458333,1.1237061,38.3184523809524,1.25,0.833333333333333,1.4,3.28571428571429,2.8,3.0,2.0,5.0,22.0,10.0,12.0,60.0
270,83,5,1.0,16,1.0,100.0,0.3334294,38.3184523809524,1.25,0.833333333333333,1.4,3.28571428571429,2.8,3.0,2.0,5.0,22.0,10.0,12.0,60.0
270,84,5,1.0,9,1.0,14.32291667,1.3073729,38.3184523809524,1.25,0.833333333333333,1.4,3.28571428571429,2.8,3.0,2.0,5.0,22.0,10.0,12.0,60.0
270,85,5,1.0,9,1.0,18.75,0.8938533,38.3184523809524,1.25,0.833333333333333,1.4,3.28571428571429,2.8,3.0,2.0,5.0,22.0,10.0,12.0,60.0
270,86,5,1.0,9,0.0,0.0,0.4225349,38.3184523809524,1.25,0.833333333333333,1.4,3.28571428571429,2.8,3.0,2.0,5.0,22.0,10.0,12.0,60.0
270,87,5,1.0,16,1.0,100.0,0.5956717,38.3184523809524,1.25,0.833333333333333,1.4,3.28571428571429,2.8,3.0,2.0,5.0,22.0,10.0,12.0,60.0
270,88,5,1.0,9,1.0,0.0,0.5666856,38.3184523809524,1.25,0.833333333333333,1.4,3.28571428571429,2.8,3.0,2.0,5.0,22.0,10.0,12.0,60.0
270,89,5,1.0,16,1.0,100.0,0.3603413,38.3184523809524,1.25,0.833333333333333,1.4,3.28571428571429,2.8,3.0,2.0,5.0,22.0,10.0,12.0,60.0
270,90,5,1.0,9,1.0,0.0,0.4255679,38.3184523809524,1.25,0.833333333333333,1.4,3.28571428571429,2.8,3.0,2.0,5.0,22.0,10.0,12.0,60.0
270,91,5,1.0,9,0.0,25.52083333,0.3454478,38.3184523809524,1.25,0.833333333333333,1.4,3.28571428571429,2.8,3.0,2.0,5.0,22.0,10.0,12.0,60.0
270,92,5,1.0,16,1.0,100.0,0.6337183,38.3184523809524,1.25,0.833333333333333,1.4,3.28571428571429,2.8,3.0,2.0,5.0,22.0,10.0,12.0,60.0
270,93,5,1.0,9,0.0,5.729166667,0.8503245,38.3184523809524,1.25,0.833333333333333,1.4,3.28571428571429,2.8,3.0,2.0,5.0,22.0,10.0,12.0,60.0
270,94,5,1.0,16,1.0,100.0,0.221599,38.3184523809524,1.25,0.833333333333333,1.4,3.28571428571429,2.8,3.0,2.0,5.0,22.0,10.0,12.0,60.0
270,95,5,1.0,10,1.0,100.0,0.3276587,38.3184523809524,1.25,0.833333333333333,1.4,3.28571428571429,2.8,3.0,2.0,5.0,22.0,10.0,12.0,60.0
270,96,5,1.0,10,0.0,0.0,1.181864,38.3184523809524,1.25,0.833333333333333,1.4,3.28571428571429,2.8,3.0,2.0,5.0,22.0,10.0,12.0,60.0
270,97,5,1.0,15,1.0,100.0,0.3359143,38.3184523809524,1.25,0.833333333333333,1.4,3.28571428571429,2.8,3.0,2.0,5.0,22.0,10.0,12.0,60.0
270,98,5,1.0,10,1.0,18.22916667,0.4334206,38.3184523809524,1.25,0.833333333333333,1.4,3.28571428571429,2.8,3.0,2.0,5.0,22.0,10.0,12.0,60.0
270,99,5,1.0,10,0.0,13.54166667,0.8322435,38.3184523809524,1.25,0.833333333333333,1.4,3.28571428571429,2.8,3.0,2.0,5.0,22.0,10.0,12.0,60.0
270,100,5,1.0,15,1.0,100.0,0.5298318,38.3184523809524,1.25,0.833333333333333,1.4,3.28571428571429,2.8,3.0,2.0,5.0,22.0,10.0,12.0,60.0
270,101,6,1.0,11,1.0,55.72916667,0.4169187,38.3184523809524,1.25,0.833333333333333,1.4,3.28571428571429,2.8,3.0,2.0,5.0,22.0,10.0,12.0,60.0
270,102,6,1.0,10,1.0,11.45833333,0.7668772,38.3184523809524,1.25,0.833333333333333,1.4,3.28571428571429,2.8,3.0,2.0,5.0,22.0,10.0,12.0,60.0
270,103,6,1.0,15,1.0,100.0,0.3757298,38.3184523809524,1.25,0.833333333333333,1.4,3.28571428571429,2.8,3.0,2.0,5.0,22.0,10.0,12.0,60.0
270,104,6,1.0,10,1.0,41.92708333,1.0384103,38.3184523809524,1.25,0.833333333333333,1.4,3.28571428571429,2.8,3.0,2.0,5.0,22.0,10.0,12.0,60.0
270,105,6,1.0,10,1.0,71.09375,0.2765319,38.3184523809524,1.25,0.833333333333333,1.4,3.28571428571429,2.8,3.0,2.0,5.0,22.0,10.0,12.0,60.0
270,106,6,1.0,16,1.0,100.0,0.3001299,38.3184523809524,1.25,0.833333333333333,1.4,3.28571428571429,2.8,3.0,2.0,5.0,22.0,10.0,12.0,60.0
270,107,6,1.0,10,0.0,48.69791667,0.2769507,38.3184523809524,1.25,0.833333333333333,1.4,3.28571428571429,2.8,3.0,2.0,5.0,22.0,10.0,12.0,60.0
270,108,6,1.0,10,1.0,28.90625,0.3760071,38.3184523809524,1.25,0.833333333333333,1.4,3.28571428571429,2.8,3.0,2.0,5.0,22.0,10.0,12.0,60.0
270,109,6,1.0,15,1.0,100.0,0.3348797,38.3184523809524,1.25,0.833333333333333,1.4,3.28571428571429,2.8,3.0,2.0,5.0,22.0,10.0,12.0,60.0
270,110,6,1.0,10,1.0,0.0,0.3167757,38.3184523809524,1.25,0.833333333333333,1.4,3.28571428571429,2.8,3.0,2.0,5.0,22.0,10.0,12.0,60.0
270,111,6,1.0,10,1.0,59.11458333,0.3167277,38.3184523809524,1.25,0.833333333333333,1.4,3.28571428571429,2.8,3.0,2.0,5.0,22.0,10.0,12.0,60.0
270,112,6,1.0,16,1.0,100.0,0.3496035,38.3184523809524,1.25,0.833333333333333,1.4,3.28571428571429,2.8,3.0,2.0,5.0,22.0,10.0,12.0,60.0
270,113,6,1.0,9,0.0,23.17708333,0.6157995,38.3184523809524,1.25,0.833333333333333,1.4,3.28571428571429,2.8,3.0,2.0,5.0,22.0,10.0,12.0,60.0
270,114,6,1.0,10,0.0,1.041666667,1.0545468,38.3184523809524,1.25,0.833333333333333,1.4,3.28571428571429,2.8,3.0,2.0,5.0,22.0,10.0,12.0,60.0
270,115,6,1.0,10,1.0,57.8125,0.4356991,38.3184523809524,1.25,0.833333333333333,1.4,3.28571428571429,2.8,3.0,2.0,5.0,22.0,10.0,12.0,60.0
270,116,6,1.0,15,1.0,100.0,0.6175902,38.3184523809524,1.25,0.833333333333333,1.4,3.28571428571429,2.8,3.0,2.0,5.0,22.0,10.0,12.0,60.0
270,117,6,1.0,10,1.0,28.64583333,0.9007829,38.3184523809524,1.25,0.833333333333333,1.4,3.28571428571429,2.8,3.0,2.0,5.0,22.0,10.0,12.0,60.0
270,118,6,1.0,15,1.0,100.0,0.3170077,38.3184523809524,1.25,0.833333333333333,1.4,3.28571428571429,2.8,3.0,2.0,5.0,22.0,10.0,12.0,60.0
270,119,6,1.0,10,0.0,33.33333333,0.6165263,38.3184523809524,1.25,0.833333333333333,1.4,3.28571428571429,2.8,3.0,2.0,5.0,22.0,10.0,12.0,60.0
270,120,6,1.0,10,1.0,0.0,0.8383824,38.3184523809524,1.25,0.833333333333333,1.4,3.28571428571429,2.8,3.0,2.0,5.0,22.0,10.0,12.0,60.0
271,1,1,0.0,9,1.0,0.0,1.4842326,55.3199404761905,1.75,0.833333333333333,1.4,1.85714285714286,1.0,0.0,1.0,0.333333333333333,40.0,23.0,17.0,28.0
271,2,1,0.0,7,1.0,0.0,2.667083,55.3199404761905,1.75,0.833333333333333,1.4,1.85714285714286,1.0,0.0,1.0,0.333333333333333,40.0,23.0,17.0,28.0
271,3,1,0.0,6,1.0,31.77083333,1.3502247,55.3199404761905,1.75,0.833333333333333,1.4,1.85714285714286,1.0,0.0,1.0,0.333333333333333,40.0,23.0,17.0,28.0
271,4,1,0.0,4,1.0,66.92708333,1.6578239,55.3199404761905,1.75,0.833333333333333,1.4,1.85714285714286,1.0,0.0,1.0,0.333333333333333,40.0,23.0,17.0,28.0
271,5,1,0.0,3,0.0,31.77083333,0.7501204,55.3199404761905,1.75,0.833333333333333,1.4,1.85714285714286,1.0,0.0,1.0,0.333333333333333,40.0,23.0,17.0,28.0
271,6,1,0.0,6,1.0,4.947916667,0.8193614,55.3199404761905,1.75,0.833333333333333,1.4,1.85714285714286,1.0,0.0,1.0,0.333333333333333,40.0,23.0,17.0,28.0
271,7,1,0.0,5,1.0,0.0,1.6466286,55.3199404761905,1.75,0.833333333333333,1.4,1.85714285714286,1.0,0.0,1.0,0.333333333333333,40.0,23.0,17.0,28.0
271,8,1,0.0,4,1.0,53.90625,0.708244,55.3199404761905,1.75,0.833333333333333,1.4,1.85714285714286,1.0,0.0,1.0,0.333333333333333,40.0,23.0,17.0,28.0
271,9,1,0.0,4,0.0,0.0,2.3488133,55.3199404761905,1.75,0.833333333333333,1.4,1.85714285714286,1.0,0.0,1.0,0.333333333333333,40.0,23.0,17.0,28.0
271,10,1,0.0,4,0.0,0.0,2.4502807,55.3199404761905,1.75,0.833333333333333,1.4,1.85714285714286,1.0,0.0,1.0,0.333333333333333,40.0,23.0,17.0,28.0
271,11,1,0.0,6,1.0,42.1875,1.066348,55.3199404761905,1.75,0.833333333333333,1.4,1.85714285714286,1.0,0.0,1.0,0.333333333333333,40.0,23.0,17.0,28.0
271,12,1,0.0,5,1.0,55.98958333,0.642189,55.3199404761905,1.75,0.833333333333333,1.4,1.85714285714286,1.0,0.0,1.0,0.333333333333333,40.0,23.0,17.0,28.0
271,13,1,0.0,5,0.0,64.84375,1.016497,55.3199404761905,1.75,0.833333333333333,1.4,1.85714285714286,1.0,0.0,1.0,0.333333333333333,40.0,23.0,17.0,28.0
271,14,1,0.0,6,0.0,0.0,2.957102,55.3199404761905,1.75,0.833333333333333,1.4,1.85714285714286,1.0,0.0,1.0,0.333333333333333,40.0,23.0,17.0,28.0
271,15,1,0.0,9,0.0,8.072916667,1.4168089,55.3199404761905,1.75,0.833333333333333,1.4,1.85714285714286,1.0,0.0,1.0,0.333333333333333,40.0,23.0,17.0,28.0
271,16,1,0.0,13,1.0,0.0,1.5160318,55.3199404761905,1.75,0.833333333333333,1.4,1.85714285714286,1.0,0.0,1.0,0.333333333333333,40.0,23.0,17.0,28.0
271,17,1,0.0,12,0.0,62.23958333,0.4890372,55.3199404761905,1.75,0.833333333333333,1.4,1.85714285714286,1.0,0.0,1.0,0.333333333333333,40.0,23.0,17.0,28.0
271,18,1,0.0,14,0.0,54.6875,1.2834182,55.3199404761905,1.75,0.833333333333333,1.4,1.85714285714286,1.0,0.0,1.0,0.333333333333333,40.0,23.0,17.0,28.0
271,19,1,0.0,16,1.0,76.82291667,1.2391075,55.3199404761905,1.75,0.833333333333333,1.4,1.85714285714286,1.0,0.0,1.0,0.333333333333333,40.0,23.0,17.0,28.0
271,20,1,0.0,15,0.0,58.33333333,1.2187404,55.3199404761905,1.75,0.833333333333333,1.4,1.85714285714286,1.0,0.0,1.0,0.333333333333333,40.0,23.0,17.0,28.0
271,21,2,0.0,16,1.0,70.83333333,1.8011413,55.3199404761905,1.75,0.833333333333333,1.4,1.85714285714286,1.0,0.0,1.0,0.333333333333333,40.0,23.0,17.0,28.0
271,22,2,0.0,16,1.0,12.76041667,1.3501622,55.3199404761905,1.75,0.833333333333333,1.4,1.85714285714286,1.0,0.0,1.0,0.333333333333333,40.0,23.0,17.0,28.0
271,23,2,0.0,16,1.0,100.0,1.0835,55.3199404761905,1.75,0.833333333333333,1.4,1.85714285714286,1.0,0.0,1.0,0.333333333333333,40.0,23.0,17.0,28.0
271,24,2,0.0,16,1.0,100.0,1.0381221,55.3199404761905,1.75,0.833333333333333,1.4,1.85714285714286,1.0,0.0,1.0,0.333333333333333,40.0,23.0,17.0,28.0
271,25,2,0.0,16,1.0,98.95833333,1.3661471,55.3199404761905,1.75,0.833333333333333,1.4,1.85714285714286,1.0,0.0,1.0,0.333333333333333,40.0,23.0,17.0,28.0
271,26,2,0.0,15,1.0,23.95833333,1.4502083,55.3199404761905,1.75,0.833333333333333,1.4,1.85714285714286,1.0,0.0,1.0,0.333333333333333,40.0,23.0,17.0,28.0
271,27,2,0.0,15,1.0,2.083333333,2.5167748,55.3199404761905,1.75,0.833333333333333,1.4,1.85714285714286,1.0,0.0,1.0,0.333333333333333,40.0,23.0,17.0,28.0
271,28,2,0.0,15,1.0,100.0,0.6624811,55.3199404761905,1.75,0.833333333333333,1.4,1.85714285714286,1.0,0.0,1.0,0.333333333333333,40.0,23.0,17.0,28.0
271,29,2,0.0,15,1.0,100.0,1.2334424,55.3199404761905,1.75,0.833333333333333,1.4,1.85714285714286,1.0,0.0,1.0,0.333333333333333,40.0,23.0,17.0,28.0
271,30,2,0.0,15,1.0,100.0,0.8199463,55.3199404761905,1.75,0.833333333333333,1.4,1.85714285714286,1.0,0.0,1.0,0.333333333333333,40.0,23.0,17.0,28.0
271,31,2,0.0,15,1.0,100.0,0.616554,55.3199404761905,1.75,0.833333333333333,1.4,1.85714285714286,1.0,0.0,1.0,0.333333333333333,40.0,23.0,17.0,28.0
271,32,2,0.0,15,1.0,100.0,0.5813434,55.3199404761905,1.75,0.833333333333333,1.4,1.85714285714286,1.0,0.0,1.0,0.333333333333333,40.0,23.0,17.0,28.0
271,33,2,0.0,14,1.0,8.333333333,1.1253839,55.3199404761905,1.75,0.833333333333333,1.4,1.85714285714286,1.0,0.0,1.0,0.333333333333333,40.0,23.0,17.0,28.0
271,34,2,0.0,14,1.0,4.6875,0.7875654,55.3199404761905,1.75,0.833333333333333,1.4,1.85714285714286,1.0,0.0,1.0,0.333333333333333,40.0,23.0,17.0,28.0
271,35,2,0.0,14,1.0,83.59375,0.5671059,55.3199404761905,1.75,0.833333333333333,1.4,1.85714285714286,1.0,0.0,1.0,0.333333333333333,40.0,23.0,17.0,28.0
271,36,2,0.0,13,1.0,53.90625,1.121158,55.3199404761905,1.75,0.833333333333333,1.4,1.85714285714286,1.0,0.0,1.0,0.333333333333333,40.0,23.0,17.0,28.0
271,37,2,0.0,13,1.0,0.0,0.9667903,55.3199404761905,1.75,0.833333333333333,1.4,1.85714285714286,1.0,0.0,1.0,0.333333333333333,40.0,23.0,17.0,28.0
271,38,2,0.0,12,1.0,0.0,0.9227288,55.3199404761905,1.75,0.833333333333333,1.4,1.85714285714286,1.0,0.0,1.0,0.333333333333333,40.0,23.0,17.0,28.0
271,39,2,0.0,12,1.0,0.0,0.5463168,55.3199404761905,1.75,0.833333333333333,1.4,1.85714285714286,1.0,0.0,1.0,0.333333333333333,40.0,23.0,17.0,28.0
271,40,2,0.0,12,1.0,52.60416667,0.6530044,55.3199404761905,1.75,0.833333333333333,1.4,1.85714285714286,1.0,0.0,1.0,0.333333333333333,40.0,23.0,17.0,28.0
271,41,3,0.0,12,1.0,9.375,0.9533186,55.3199404761905,1.75,0.833333333333333,1.4,1.85714285714286,1.0,0.0,1.0,0.333333333333333,40.0,23.0,17.0,28.0
271,42,3,0.0,12,1.0,0.0,0.9335537,55.3199404761905,1.75,0.833333333333333,1.4,1.85714285714286,1.0,0.0,1.0,0.333333333333333,40.0,23.0,17.0,28.0
271,43,3,0.0,11,0.0,0.0,1.9333577,55.3199404761905,1.75,0.833333333333333,1.4,1.85714285714286,1.0,0.0,1.0,0.333333333333333,40.0,23.0,17.0,28.0
271,44,3,0.0,12,1.0,14.84375,0.6500832,55.3199404761905,1.75,0.833333333333333,1.4,1.85714285714286,1.0,0.0,1.0,0.333333333333333,40.0,23.0,17.0,28.0
271,45,3,0.0,12,0.0,0.0,1.3002562,55.3199404761905,1.75,0.833333333333333,1.4,1.85714285714286,1.0,0.0,1.0,0.333333333333333,40.0,23.0,17.0,28.0
271,46,3,0.0,12,0.0,1.5625,0.3669288,55.3199404761905,1.75,0.833333333333333,1.4,1.85714285714286,1.0,0.0,1.0,0.333333333333333,40.0,23.0,17.0,28.0
271,47,3,0.0,13,1.0,1.822916667,0.7501555,55.3199404761905,1.75,0.833333333333333,1.4,1.85714285714286,1.0,0.0,1.0,0.333333333333333,40.0,23.0,17.0,28.0
271,48,3,0.0,13,1.0,4.427083333,0.9053246,55.3199404761905,1.75,0.833333333333333,1.4,1.85714285714286,1.0,0.0,1.0,0.333333333333333,40.0,23.0,17.0,28.0
271,49,3,0.0,12,1.0,25.78125,0.5666649,55.3199404761905,1.75,0.833333333333333,1.4,1.85714285714286,1.0,0.0,1.0,0.333333333333333,40.0,23.0,17.0,28.0
271,50,3,0.0,12,0.0,0.0,0.8834412,55.3199404761905,1.75,0.833333333333333,1.4,1.85714285714286,1.0,0.0,1.0,0.333333333333333,40.0,23.0,17.0,28.0
271,51,3,0.0,13,1.0,4.947916667,1.4460448,55.3199404761905,1.75,0.833333333333333,1.4,1.85714285714286,1.0,0.0,1.0,0.333333333333333,40.0,23.0,17.0,28.0
271,52,3,0.0,13,1.0,10.67708333,0.6609111,55.3199404761905,1.75,0.833333333333333,1.4,1.85714285714286,1.0,0.0,1.0,0.333333333333333,40.0,23.0,17.0,28.0
271,53,3,0.0,13,1.0,29.42708333,0.7001973,55.3199404761905,1.75,0.833333333333333,1.4,1.85714285714286,1.0,0.0,1.0,0.333333333333333,40.0,23.0,17.0,28.0
271,54,3,0.0,13,1.0,15.625,0.4959569,55.3199404761905,1.75,0.833333333333333,1.4,1.85714285714286,1.0,0.0,1.0,0.333333333333333,40.0,23.0,17.0,28.0
271,55,3,0.0,12,1.0,13.80208333,0.6001749,55.3199404761905,1.75,0.833333333333333,1.4,1.85714285714286,1.0,0.0,1.0,0.333333333333333,40.0,23.0,17.0,28.0
271,56,3,0.0,12,1.0,46.35416667,0.6191717,55.3199404761905,1.75,0.833333333333333,1.4,1.85714285714286,1.0,0.0,1.0,0.333333333333333,40.0,23.0,17.0,28.0
271,57,3,0.0,12,1.0,0.0,1.1443835,55.3199404761905,1.75,0.833333333333333,1.4,1.85714285714286,1.0,0.0,1.0,0.333333333333333,40.0,23.0,17.0,28.0
271,58,3,0.0,12,1.0,25.0,1.1685871,55.3199404761905,1.75,0.833333333333333,1.4,1.85714285714286,1.0,0.0,1.0,0.333333333333333,40.0,23.0,17.0,28.0
271,59,3,0.0,12,1.0,2.34375,0.4410913,55.3199404761905,1.75,0.833333333333333,1.4,1.85714285714286,1.0,0.0,1.0,0.333333333333333,40.0,23.0,17.0,28.0
271,60,3,0.0,12,0.0,0.0,0.5648887,55.3199404761905,1.75,0.833333333333333,1.4,1.85714285714286,1.0,0.0,1.0,0.333333333333333,40.0,23.0,17.0,28.0
271,61,4,0.0,12,0.0,0.0,0.966851,55.3199404761905,1.75,0.833333333333333,1.4,1.85714285714286,1.0,0.0,1.0,0.333333333333333,40.0,23.0,17.0,28.0
271,62,4,0.0,13,1.0,50.78125,0.6832757,55.3199404761905,1.75,0.833333333333333,1.4,1.85714285714286,1.0,0.0,1.0,0.333333333333333,40.0,23.0,17.0,28.0
271,63,4,0.0,13,1.0,39.58333333,0.5222022,55.3199404761905,1.75,0.833333333333333,1.4,1.85714285714286,1.0,0.0,1.0,0.333333333333333,40.0,23.0,17.0,28.0
271,64,4,0.0,13,1.0,52.08333333,0.589608,55.3199404761905,1.75,0.833333333333333,1.4,1.85714285714286,1.0,0.0,1.0,0.333333333333333,40.0,23.0,17.0,28.0
271,65,4,0.0,13,1.0,0.0,2.1671192,55.3199404761905,1.75,0.833333333333333,1.4,1.85714285714286,1.0,0.0,1.0,0.333333333333333,40.0,23.0,17.0,28.0
271,66,4,0.0,12,0.0,0.0,0.3652345,55.3199404761905,1.75,0.833333333333333,1.4,1.85714285714286,1.0,0.0,1.0,0.333333333333333,40.0,23.0,17.0,28.0
271,67,4,0.0,13,1.0,39.58333333,0.470166,55.3199404761905,1.75,0.833333333333333,1.4,1.85714285714286,1.0,0.0,1.0,0.333333333333333,40.0,23.0,17.0,28.0
271,68,4,0.0,13,0.0,0.0,0.9726121,55.3199404761905,1.75,0.833333333333333,1.4,1.85714285714286,1.0,0.0,1.0,0.333333333333333,40.0,23.0,17.0,28.0
271,69,4,0.0,13,1.0,56.51041667,0.4704295,55.3199404761905,1.75,0.833333333333333,1.4,1.85714285714286,1.0,0.0,1.0,0.333333333333333,40.0,23.0,17.0,28.0
271,70,4,0.0,13,1.0,51.5625,0.7838504,55.3199404761905,1.75,0.833333333333333,1.4,1.85714285714286,1.0,0.0,1.0,0.333333333333333,40.0,23.0,17.0,28.0
271,71,4,0.0,13,1.0,8.333333333,1.2999657,55.3199404761905,1.75,0.833333333333333,1.4,1.85714285714286,1.0,0.0,1.0,0.333333333333333,40.0,23.0,17.0,28.0
271,72,4,0.0,13,1.0,5.989583333,0.628179,55.3199404761905,1.75,0.833333333333333,1.4,1.85714285714286,1.0,0.0,1.0,0.333333333333333,40.0,23.0,17.0,28.0
271,73,4,0.0,13,1.0,50.78125,0.3967657,55.3199404761905,1.75,0.833333333333333,1.4,1.85714285714286,1.0,0.0,1.0,0.333333333333333,40.0,23.0,17.0,28.0
271,74,4,0.0,13,1.0,52.34375,1.022143,55.3199404761905,1.75,0.833333333333333,1.4,1.85714285714286,1.0,0.0,1.0,0.333333333333333,40.0,23.0,17.0,28.0
271,75,4,0.0,13,1.0,0.0,0.425421,55.3199404761905,1.75,0.833333333333333,1.4,1.85714285714286,1.0,0.0,1.0,0.333333333333333,40.0,23.0,17.0,28.0
271,76,4,0.0,12,1.0,20.05208333,0.4132617,55.3199404761905,1.75,0.833333333333333,1.4,1.85714285714286,1.0,0.0,1.0,0.333333333333333,40.0,23.0,17.0,28.0
271,77,4,0.0,12,1.0,31.51041667,0.4231347,55.3199404761905,1.75,0.833333333333333,1.4,1.85714285714286,1.0,0.0,1.0,0.333333333333333,40.0,23.0,17.0,28.0
271,78,4,0.0,12,1.0,9.635416667,0.4191491,55.3199404761905,1.75,0.833333333333333,1.4,1.85714285714286,1.0,0.0,1.0,0.333333333333333,40.0,23.0,17.0,28.0
271,79,4,0.0,12,1.0,2.34375,0.4888098,55.3199404761905,1.75,0.833333333333333,1.4,1.85714285714286,1.0,0.0,1.0,0.333333333333333,40.0,23.0,17.0,28.0
271,80,4,0.0,12,1.0,12.76041667,0.4810304,55.3199404761905,1.75,0.833333333333333,1.4,1.85714285714286,1.0,0.0,1.0,0.333333333333333,40.0,23.0,17.0,28.0
271,81,5,0.0,12,0.0,0.0,0.9512726,55.3199404761905,1.75,0.833333333333333,1.4,1.85714285714286,1.0,0.0,1.0,0.333333333333333,40.0,23.0,17.0,28.0
271,82,5,0.0,12,1.0,12.23958333,0.6334721,55.3199404761905,1.75,0.833333333333333,1.4,1.85714285714286,1.0,0.0,1.0,0.333333333333333,40.0,23.0,17.0,28.0
271,83,5,0.0,12,1.0,41.92708333,0.4665527,55.3199404761905,1.75,0.833333333333333,1.4,1.85714285714286,1.0,0.0,1.0,0.333333333333333,40.0,23.0,17.0,28.0
271,84,5,0.0,12,1.0,15.36458333,0.4556514,55.3199404761905,1.75,0.833333333333333,1.4,1.85714285714286,1.0,0.0,1.0,0.333333333333333,40.0,23.0,17.0,28.0
271,85,5,0.0,12,1.0,47.65625,0.5167852,55.3199404761905,1.75,0.833333333333333,1.4,1.85714285714286,1.0,0.0,1.0,0.333333333333333,40.0,23.0,17.0,28.0
271,86,5,0.0,11,1.0,0.0,2.5002072,55.3199404761905,1.75,0.833333333333333,1.4,1.85714285714286,1.0,0.0,1.0,0.333333333333333,40.0,23.0,17.0,28.0
271,87,5,0.0,11,0.0,0.0,0.3928179,55.3199404761905,1.75,0.833333333333333,1.4,1.85714285714286,1.0,0.0,1.0,0.333333333333333,40.0,23.0,17.0,28.0
271,88,5,0.0,11,1.0,31.51041667,0.5539064,55.3199404761905,1.75,0.833333333333333,1.4,1.85714285714286,1.0,0.0,1.0,0.333333333333333,40.0,23.0,17.0,28.0
271,89,5,0.0,11,1.0,17.96875,0.5460117,55.3199404761905,1.75,0.833333333333333,1.4,1.85714285714286,1.0,0.0,1.0,0.333333333333333,40.0,23.0,17.0,28.0
271,90,5,0.0,11,0.0,0.0,0.6836109,55.3199404761905,1.75,0.833333333333333,1.4,1.85714285714286,1.0,0.0,1.0,0.333333333333333,40.0,23.0,17.0,28.0
271,91,5,0.0,13,1.0,35.15625,0.466851,55.3199404761905,1.75,0.833333333333333,1.4,1.85714285714286,1.0,0.0,1.0,0.333333333333333,40.0,23.0,17.0,28.0
271,92,5,0.0,12,1.0,7.552083333,0.7000942,55.3199404761905,1.75,0.833333333333333,1.4,1.85714285714286,1.0,0.0,1.0,0.333333333333333,40.0,23.0,17.0,28.0
271,93,5,0.0,11,1.0,7.291666667,0.5334629,55.3199404761905,1.75,0.833333333333333,1.4,1.85714285714286,1.0,0.0,1.0,0.333333333333333,40.0,23.0,17.0,28.0
271,94,5,0.0,11,1.0,5.46875,1.9267458,55.3199404761905,1.75,0.833333333333333,1.4,1.85714285714286,1.0,0.0,1.0,0.333333333333333,40.0,23.0,17.0,28.0
271,95,5,0.0,11,1.0,0.0,1.0986332,55.3199404761905,1.75,0.833333333333333,1.4,1.85714285714286,1.0,0.0,1.0,0.333333333333333,40.0,23.0,17.0,28.0
271,96,5,0.0,11,0.0,8.333333333,2.6473219,55.3199404761905,1.75,0.833333333333333,1.4,1.85714285714286,1.0,0.0,1.0,0.333333333333333,40.0,23.0,17.0,28.0
271,97,5,0.0,11,1.0,7.552083333,1.8820667,55.3199404761905,1.75,0.833333333333333,1.4,1.85714285714286,1.0,0.0,1.0,0.333333333333333,40.0,23.0,17.0,28.0
271,98,5,0.0,11,1.0,41.40625,0.6473015,55.3199404761905,1.75,0.833333333333333,1.4,1.85714285714286,1.0,0.0,1.0,0.333333333333333,40.0,23.0,17.0,28.0
271,99,5,0.0,11,0.0,0.0,0.3380813,55.3199404761905,1.75,0.833333333333333,1.4,1.85714285714286,1.0,0.0,1.0,0.333333333333333,40.0,23.0,17.0,28.0
271,100,5,0.0,13,1.0,31.77083333,0.3913031,55.3199404761905,1.75,0.833333333333333,1.4,1.85714285714286,1.0,0.0,1.0,0.333333333333333,40.0,23.0,17.0,28.0
271,101,6,0.0,11,1.0,26.82291667,0.483446,55.3199404761905,1.75,0.833333333333333,1.4,1.85714285714286,1.0,0.0,1.0,0.333333333333333,40.0,23.0,17.0,28.0
271,102,6,0.0,11,1.0,30.46875,0.6579943,55.3199404761905,1.75,0.833333333333333,1.4,1.85714285714286,1.0,0.0,1.0,0.333333333333333,40.0,23.0,17.0,28.0
271,103,6,0.0,10,0.0,0.0,0.7000417,55.3199404761905,1.75,0.833333333333333,1.4,1.85714285714286,1.0,0.0,1.0,0.333333333333333,40.0,23.0,17.0,28.0
271,104,6,0.0,13,1.0,66.14583333,0.3167476,55.3199404761905,1.75,0.833333333333333,1.4,1.85714285714286,1.0,0.0,1.0,0.333333333333333,40.0,23.0,17.0,28.0
271,105,6,0.0,13,1.0,49.73958333,0.5500504,55.3199404761905,1.75,0.833333333333333,1.4,1.85714285714286,1.0,0.0,1.0,0.333333333333333,40.0,23.0,17.0,28.0
271,106,6,0.0,11,1.0,29.16666667,0.4532426,55.3199404761905,1.75,0.833333333333333,1.4,1.85714285714286,1.0,0.0,1.0,0.333333333333333,40.0,23.0,17.0,28.0
271,107,6,0.0,11,1.0,10.41666667,0.5508644,55.3199404761905,1.75,0.833333333333333,1.4,1.85714285714286,1.0,0.0,1.0,0.333333333333333,40.0,23.0,17.0,28.0
271,108,6,0.0,11,1.0,9.375,0.4501918,55.3199404761905,1.75,0.833333333333333,1.4,1.85714285714286,1.0,0.0,1.0,0.333333333333333,40.0,23.0,17.0,28.0
271,109,6,0.0,10,0.0,0.0,0.4000668,55.3199404761905,1.75,0.833333333333333,1.4,1.85714285714286,1.0,0.0,1.0,0.333333333333333,40.0,23.0,17.0,28.0
271,110,6,0.0,14,1.0,64.58333333,0.3998835,55.3199404761905,1.75,0.833333333333333,1.4,1.85714285714286,1.0,0.0,1.0,0.333333333333333,40.0,23.0,17.0,28.0
271,111,6,0.0,14,1.0,88.02083333,0.5794333,55.3199404761905,1.75,0.833333333333333,1.4,1.85714285714286,1.0,0.0,1.0,0.333333333333333,40.0,23.0,17.0,28.0
271,112,6,0.0,11,0.0,0.0,0.3151786,55.3199404761905,1.75,0.833333333333333,1.4,1.85714285714286,1.0,0.0,1.0,0.333333333333333,40.0,23.0,17.0,28.0
271,113,6,0.0,13,0.0,1.302083333,0.3501707,55.3199404761905,1.75,0.833333333333333,1.4,1.85714285714286,1.0,0.0,1.0,0.333333333333333,40.0,23.0,17.0,28.0
271,114,6,0.0,14,1.0,60.41666667,0.6784081,55.3199404761905,1.75,0.833333333333333,1.4,1.85714285714286,1.0,0.0,1.0,0.333333333333333,40.0,23.0,17.0,28.0
271,115,6,0.0,14,1.0,62.23958333,0.5166792,55.3199404761905,1.75,0.833333333333333,1.4,1.85714285714286,1.0,0.0,1.0,0.333333333333333,40.0,23.0,17.0,28.0
271,116,6,0.0,14,1.0,72.65625,1.0419532,55.3199404761905,1.75,0.833333333333333,1.4,1.85714285714286,1.0,0.0,1.0,0.333333333333333,40.0,23.0,17.0,28.0
271,117,6,0.0,14,1.0,54.94791667,0.6102778,55.3199404761905,1.75,0.833333333333333,1.4,1.85714285714286,1.0,0.0,1.0,0.333333333333333,40.0,23.0,17.0,28.0
271,118,6,0.0,14,1.0,89.0625,0.6744137,55.3199404761905,1.75,0.833333333333333,1.4,1.85714285714286,1.0,0.0,1.0,0.333333333333333,40.0,23.0,17.0,28.0
271,119,6,0.0,14,1.0,75.0,1.4500343,55.3199404761905,1.75,0.833333333333333,1.4,1.85714285714286,1.0,0.0,1.0,0.333333333333333,40.0,23.0,17.0,28.0
271,120,6,0.0,14,1.0,,0.4501883,55.3199404761905,1.75,0.833333333333333,1.4,1.85714285714286,1.0,0.0,1.0,0.333333333333333,40.0,23.0,17.0,28.0
273,1,1,0.0,9,1.0,34.89583333,1.3963844,0.0,3.25,2.33333333333333,1.8,3.71428571428571,2.6,0.75,0.0,3.66666666666667,26.0,14.0,12.0,55.0
273,2,1,0.0,7,1.0,30.98958333,1.276116,0.0,3.25,2.33333333333333,1.8,3.71428571428571,2.6,0.75,0.0,3.66666666666667,26.0,14.0,12.0,55.0
273,3,1,0.0,6,0.0,59.63541667,0.5714795,0.0,3.25,2.33333333333333,1.8,3.71428571428571,2.6,0.75,0.0,3.66666666666667,26.0,14.0,12.0,55.0
273,4,1,0.0,9,0.0,35.9375,0.788326,0.0,3.25,2.33333333333333,1.8,3.71428571428571,2.6,0.75,0.0,3.66666666666667,26.0,14.0,12.0,55.0
273,5,1,0.0,13,0.0,20.05208333,1.6607381,0.0,3.25,2.33333333333333,1.8,3.71428571428571,2.6,0.75,0.0,3.66666666666667,26.0,14.0,12.0,55.0
273,6,1,0.0,15,1.0,100.0,0.4546578,0.0,3.25,2.33333333333333,1.8,3.71428571428571,2.6,0.75,0.0,3.66666666666667,26.0,14.0,12.0,55.0
273,7,1,0.0,15,1.0,100.0,0.4528048,0.0,3.25,2.33333333333333,1.8,3.71428571428571,2.6,0.75,0.0,3.66666666666667,26.0,14.0,12.0,55.0
273,8,1,0.0,14,1.0,100.0,0.4579996,0.0,3.25,2.33333333333333,1.8,3.71428571428571,2.6,0.75,0.0,3.66666666666667,26.0,14.0,12.0,55.0
273,9,1,0.0,14,1.0,100.0,0.5821872,0.0,3.25,2.33333333333333,1.8,3.71428571428571,2.6,0.75,0.0,3.66666666666667,26.0,14.0,12.0,55.0
273,10,1,0.0,14,1.0,100.0,0.6529771,0.0,3.25,2.33333333333333,1.8,3.71428571428571,2.6,0.75,0.0,3.66666666666667,26.0,14.0,12.0,55.0
273,11,1,0.0,14,1.0,85.41666667,0.6833362,0.0,3.25,2.33333333333333,1.8,3.71428571428571,2.6,0.75,0.0,3.66666666666667,26.0,14.0,12.0,55.0
273,12,1,0.0,14,1.0,79.94791667,0.8182878,0.0,3.25,2.33333333333333,1.8,3.71428571428571,2.6,0.75,0.0,3.66666666666667,26.0,14.0,12.0,55.0
273,13,1,0.0,13,1.0,52.08333333,0.4473687,0.0,3.25,2.33333333333333,1.8,3.71428571428571,2.6,0.75,0.0,3.66666666666667,26.0,14.0,12.0,55.0
